Force, Ch A, Run #5
Time ( s )	Force ( N )
0.0000	0.2
0.0050	0.2
0.0100	0.2
0.0150	0.2
0.0200	0.2
0.0250	0.2
0.0300	0.2
0.0350	0.2
0.0400	0.2
0.0450	0.2
0.0500	0.2
0.0550	0.2
0.0600	0.2
0.0650	0.2
0.0700	0.2
0.0750	0.2
0.0800	0.2
0.0850	0.2
0.0900	0.2
0.0950	0.2
0.1000	0.2
0.1050	0.2
0.1100	0.2
0.1150	0.2
0.1200	0.2
0.1250	0.2
0.1300	0.2
0.1350	0.2
0.1400	0.2
0.1450	0.2
0.1500	0.2
0.1550	0.2
0.1600	0.2
0.1650	0.2
0.1700	0.2
0.1750	0.2
0.1800	0.2
0.1850	0.2
0.1900	0.2
0.1950	0.2
0.2000	0.2
0.2050	0.2
0.2100	0.2
0.2150	0.2
0.2200	0.2
0.2250	0.2
0.2300	0.2
0.2350	0.2
0.2400	0.2
0.2450	0.2
0.2500	0.2
0.2550	0.2
0.2600	0.2
0.2650	0.2
0.2700	0.2
0.2750	0.2
0.2800	0.2
0.2850	0.2
0.2900	0.2
0.2950	0.2
0.3000	0.2
0.3050	0.2
0.3100	0.2
0.3150	0.2
0.3200	0.2
0.3250	0.2
0.3300	0.2
0.3350	0.2
0.3400	0.2
0.3450	0.2
0.3500	0.2
0.3550	0.2
0.3600	0.2
0.3650	0.2
0.3700	0.2
0.3750	0.2
0.3800	0.2
0.3850	0.2
0.3900	0.2
0.3950	0.2
0.4000	0.2
0.4050	0.2
0.4100	0.2
0.4150	0.2
0.4200	0.2
0.4250	0.2
0.4300	0.2
0.4350	0.2
0.4400	0.2
0.4450	0.2
0.4500	0.2
0.4550	0.2
0.4600	0.2
0.4650	0.2
0.4700	0.2
0.4750	0.2
0.4800	0.2
0.4850	0.2
0.4900	0.2
0.4950	0.2
0.5000	0.2
0.5050	0.2
0.5100	0.2
0.5150	0.2
0.5200	0.2
0.5250	0.2
0.5300	0.2
0.5350	0.2
0.5400	0.2
0.5450	0.2
0.5500	0.2
0.5550	0.2
0.5600	0.2
0.5650	0.2
0.5700	0.2
0.5750	0.2
0.5800	0.2
0.5850	0.2
0.5900	0.2
0.5950	0.2
0.6000	0.2
0.6050	0.2
0.6100	0.2
0.6150	0.2
0.6200	0.2
0.6250	0.2
0.6300	0.2
0.6350	0.2
0.6400	0.2
0.6450	0.2
0.6500	0.2
0.6550	0.2
0.6600	0.2
0.6650	0.2
0.6700	0.2
0.6750	0.2
0.6800	0.2
0.6850	0.2
0.6900	0.2
0.6950	0.2
0.7000	0.2
0.7050	0.2
0.7100	0.2
0.7150	0.2
0.7200	0.2
0.7250	0.2
0.7300	0.2
0.7350	0.2
0.7400	0.2
0.7450	0.2
0.7500	0.2
0.7550	0.2
0.7600	0.2
0.7650	0.2
0.7700	0.2
0.7750	0.2
0.7800	0.2
0.7850	0.2
0.7900	0.2
0.7950	0.2
0.8000	0.2
0.8050	0.2
0.8100	0.2
0.8150	0.2
0.8200	0.2
0.8250	0.2
0.8300	0.2
0.8350	0.2
0.8400	0.2
0.8450	0.2
0.8500	0.2
0.8550	0.2
0.8600	0.2
0.8650	0.2
0.8700	0.2
0.8750	0.2
0.8800	0.2
0.8850	0.2
0.8900	0.2
0.8950	0.2
0.9000	0.2
0.9050	0.2
0.9100	0.2
0.9150	0.2
0.9200	0.2
0.9250	0.2
0.9300	0.2
0.9350	0.2
0.9400	0.2
0.9450	0.2
0.9500	0.2
0.9550	0.2
0.9600	0.2
0.9650	0.2
0.9700	0.2
0.9750	0.2
0.9800	0.2
0.9850	0.2
0.9900	0.2
0.9950	0.2
1.0000	0.2
1.0050	0.2
1.0100	0.2
1.0150	0.2
1.0200	0.2
1.0250	0.2
1.0300	0.2
1.0350	0.2
1.0400	0.2
1.0450	0.2
1.0500	0.2
1.0550	0.2
1.0600	0.2
1.0650	0.2
1.0700	0.2
1.0750	0.2
1.0800	0.2
1.0850	0.2
1.0900	0.2
1.0950	0.2
1.1000	0.2
1.1050	0.2
1.1100	0.2
1.1150	0.2
1.1200	0.2
1.1250	0.2
1.1300	0.2
1.1350	0.2
1.1400	0.2
1.1450	0.2
1.1500	0.2
1.1550	0.2
1.1600	0.2
1.1650	0.2
1.1700	0.2
1.1750	0.2
1.1800	0.2
1.1850	0.2
1.1900	0.2
1.1950	0.2
1.2000	0.2
1.2050	0.2
1.2100	0.2
1.2150	0.2
1.2200	0.2
1.2250	0.2
1.2300	0.2
1.2350	0.2
1.2400	0.2
1.2450	0.2
1.2500	0.2
1.2550	0.2
1.2600	0.2
1.2650	0.2
1.2700	0.2
1.2750	0.2
1.2800	0.2
1.2850	0.2
1.2900	0.2
1.2950	0.2
1.3000	0.2
1.3050	0.2
1.3100	0.2
1.3150	0.2
1.3200	0.2
1.3250	0.2
1.3300	0.2
1.3350	0.2
1.3400	0.2
1.3450	0.2
1.3500	0.2
1.3550	0.2
1.3600	0.2
1.3650	0.2
1.3700	0.2
1.3750	0.2
1.3800	0.2
1.3850	0.2
1.3900	0.2
1.3950	0.2
1.4000	0.2
1.4050	0.2
1.4100	0.2
1.4150	0.2
1.4200	0.2
1.4250	0.2
1.4300	0.2
1.4350	0.2
1.4400	0.2
1.4450	0.2
1.4500	0.2
1.4550	0.2
1.4600	0.2
1.4650	0.2
1.4700	0.2
1.4750	0.2
1.4800	0.2
1.4850	0.2
1.4900	0.2
1.4950	0.2
1.5000	0.2
1.5050	0.2
1.5100	0.2
1.5150	0.2
1.5200	0.2
1.5250	0.2
1.5300	0.2
1.5350	0.2
1.5400	0.2
1.5450	0.2
1.5500	0.2
1.5550	0.2
1.5600	0.2
1.5650	0.2
1.5700	0.2
1.5750	0.2
1.5800	0.2
1.5850	0.2
1.5900	0.2
1.5950	0.2
1.6000	0.2
1.6050	0.2
1.6100	0.2
1.6150	0.2
1.6200	0.2
1.6250	0.2
1.6300	0.2
1.6350	0.2
1.6400	0.2
1.6450	0.2
1.6500	0.2
1.6550	0.2
1.6600	0.2
1.6650	0.2
1.6700	0.2
1.6750	0.2
1.6800	0.2
1.6850	0.2
1.6900	0.2
1.6950	0.2
1.7000	0.2
1.7050	0.2
1.7100	0.2
1.7150	0.2
1.7200	0.2
1.7250	0.2
1.7300	0.2
1.7350	0.2
1.7400	0.2
1.7450	0.2
1.7500	0.2
1.7550	0.2
1.7600	0.2
1.7650	0.2
1.7700	0.2
1.7750	0.2
1.7800	0.2
1.7850	0.2
1.7900	0.2
1.7950	0.2
1.8000	0.2
1.8050	0.2
1.8100	0.2
1.8150	0.2
1.8200	0.2
1.8250	0.2
1.8300	0.2
1.8350	0.2
1.8400	0.2
1.8450	0.2
1.8500	0.2
1.8550	0.2
1.8600	0.2
1.8650	0.2
1.8700	0.2
1.8750	0.2
1.8800	0.2
1.8850	0.2
1.8900	0.2
1.8950	0.2
1.9000	0.2
1.9050	0.2
1.9100	0.2
1.9150	0.2
1.9200	0.2
1.9250	0.2
1.9300	0.2
1.9350	0.2
1.9400	0.2
1.9450	0.2
1.9500	0.2
1.9550	0.2
1.9600	0.2
1.9650	0.2
1.9700	0.2
1.9750	0.2
1.9800	0.2
1.9850	0.2
1.9900	0.2
1.9950	0.2
2.0000	0.2
2.0050	0.2
2.0100	0.2
2.0150	0.2
2.0200	0.2
2.0250	0.2
2.0300	0.2
2.0350	0.2
2.0400	0.2
2.0450	0.2
2.0500	0.2
2.0550	0.2
2.0600	0.2
2.0650	0.2
2.0700	0.2
2.0750	0.2
2.0800	0.2
2.0850	0.2
2.0900	0.2
2.0950	0.2
2.1000	0.2
2.1050	0.2
2.1100	0.2
2.1150	0.2
2.1200	0.2
2.1250	0.2
2.1300	0.2
2.1350	0.2
2.1400	0.2
2.1450	0.2
2.1500	0.2
2.1550	0.2
2.1600	0.2
2.1650	0.2
2.1700	0.2
2.1750	0.2
2.1800	0.2
2.1850	0.2
2.1900	0.2
2.1950	0.2
2.2000	0.2
2.2050	0.2
2.2100	0.2
2.2150	0.2
2.2200	0.2
2.2250	0.2
2.2300	0.2
2.2350	0.2
2.2400	0.2
2.2450	0.2
2.2500	0.2
2.2550	0.2
2.2600	0.2
2.2650	0.2
2.2700	0.2
2.2750	0.2
2.2800	0.2
2.2850	0.2
2.2900	0.2
2.2950	0.2
2.3000	0.2
2.3050	0.2
2.3100	0.2
2.3150	0.2
2.3200	0.2
2.3250	0.2
2.3300	0.2
2.3350	0.2
2.3400	0.2
2.3450	0.2
2.3500	0.2
2.3550	0.2
2.3600	0.2
2.3650	0.2
2.3700	0.2
2.3750	0.2
2.3800	0.2
2.3850	0.2
2.3900	0.2
2.3950	0.2
2.4000	0.2
2.4050	0.2
2.4100	0.2
2.4150	0.2
2.4200	0.2
2.4250	0.2
2.4300	0.2
2.4350	0.2
2.4400	0.2
2.4450	0.2
2.4500	0.2
2.4550	0.2
2.4600	0.2
2.4650	0.2
2.4700	0.2
2.4750	0.2
2.4800	0.2
2.4850	0.2
2.4900	0.2
2.4950	0.2
2.5000	0.2
2.5050	0.2
2.5100	0.2
2.5150	0.2
2.5200	0.2
2.5250	0.2
2.5300	0.2
2.5350	0.2
2.5400	0.2
2.5450	0.2
2.5500	0.2
2.5550	0.2
2.5600	0.2
2.5650	0.2
2.5700	0.2
2.5750	0.2
2.5800	0.2
2.5850	0.2
2.5900	0.2
2.5950	0.2
2.6000	0.2
2.6050	0.2
2.6100	0.2
2.6150	0.2
2.6200	0.2
2.6250	0.2
2.6300	0.2
2.6350	0.2
2.6400	0.2
2.6450	0.2
2.6500	0.2
2.6550	0.2
2.6600	0.2
2.6650	0.2
2.6700	0.2
2.6750	0.2
2.6800	0.2
2.6850	0.2
2.6900	0.2
2.6950	0.2
2.7000	0.2
2.7050	0.2
2.7100	0.2
2.7150	0.2
2.7200	0.2
2.7250	0.2
2.7300	0.2
2.7350	0.2
2.7400	0.2
2.7450	0.2
2.7500	0.2
2.7550	0.2
2.7600	0.2
2.7650	0.2
2.7700	0.2
2.7750	0.2
2.7800	0.2
2.7850	0.2
2.7900	0.2
2.7950	0.2
2.8000	0.2
2.8050	0.2
2.8100	0.2
2.8150	0.2
2.8200	0.2
2.8250	0.2
2.8300	0.2
2.8350	0.2
2.8400	0.2
2.8450	0.2
2.8500	0.2
2.8550	0.2
2.8600	0.2
2.8650	0.2
2.8700	0.2
2.8750	0.2
2.8800	0.2
2.8850	0.2
2.8900	0.2
2.8950	0.2
2.9000	0.2
2.9050	0.2
2.9100	0.2
2.9150	0.2
2.9200	0.2
2.9250	0.2
2.9300	0.2
2.9350	0.2
2.9400	0.2
2.9450	0.2
2.9500	0.2
2.9550	0.2
2.9600	0.2
2.9650	0.2
2.9700	0.2
2.9750	0.2
2.9800	0.2
2.9850	0.2
2.9900	0.2
2.9950	0.2
3.0000	0.2
3.0050	0.2
3.0100	0.2
3.0150	0.2
3.0200	0.2
3.0250	0.2
3.0300	0.2
3.0350	0.2
3.0400	0.2
3.0450	0.2
3.0500	0.2
3.0550	0.2
3.0600	0.2
3.0650	0.2
3.0700	0.2
3.0750	0.2
3.0800	0.2
3.0850	0.2
3.0900	0.2
3.0950	0.2
3.1000	0.2
3.1050	0.2
3.1100	0.2
3.1150	0.2
3.1200	0.2
3.1250	0.2
3.1300	0.2
3.1350	0.2
3.1400	0.2
3.1450	0.2
3.1500	0.2
3.1550	0.2
3.1600	0.2
3.1650	0.2
3.1700	0.2
3.1750	0.2
3.1800	0.2
3.1850	0.2
3.1900	0.2
3.1950	0.2
3.2000	0.2
3.2050	0.2
3.2100	0.2
3.2150	0.2
3.2200	0.2
3.2250	0.2
3.2300	0.2
3.2350	0.2
3.2400	0.2
3.2450	0.2
3.2500	0.2
3.2550	0.2
3.2600	0.2
3.2650	0.2
3.2700	0.2
3.2750	0.2
3.2800	0.2
3.2850	0.2
3.2900	0.2
3.2950	0.2
3.3000	0.2
3.3050	0.2
3.3100	0.2
3.3150	0.2
3.3200	0.2
3.3250	0.2
3.3300	0.2
3.3350	0.2
3.3400	0.2
3.3450	0.2
3.3500	0.2
3.3550	0.2
3.3600	0.2
3.3650	0.2
3.3700	0.2
3.3750	0.2
3.3800	0.2
3.3850	0.2
3.3900	0.2
3.3950	0.2
3.4000	0.2
3.4050	0.2
3.4100	0.2
3.4150	0.2
3.4200	0.2
3.4250	0.2
3.4300	0.2
3.4350	0.2
3.4400	0.2
3.4450	0.2
3.4500	0.2
3.4550	0.2
3.4600	0.2
3.4650	0.2
3.4700	0.2
3.4750	0.2
3.4800	0.2
3.4850	0.2
3.4900	0.2
3.4950	0.2
3.5000	0.2
3.5050	0.2
3.5100	0.2
3.5150	0.2
3.5200	0.2
3.5250	0.2
3.5300	0.2
3.5350	0.2
3.5400	0.2
3.5450	0.2
3.5500	0.2
3.5550	0.2
3.5600	0.2
3.5650	0.2
3.5700	0.2
3.5750	0.2
3.5800	0.2
3.5850	0.2
3.5900	0.2
3.5950	0.2
3.6000	0.2
3.6050	0.2
3.6100	0.2
3.6150	0.2
3.6200	0.2
3.6250	0.2
3.6300	0.2
3.6350	0.2
3.6400	0.2
3.6450	0.2
3.6500	0.2
3.6550	0.2
3.6600	0.2
3.6650	0.2
3.6700	0.2
3.6750	0.2
3.6800	0.2
3.6850	0.2
3.6900	0.2
3.6950	0.2
3.7000	0.2
3.7050	0.2
3.7100	0.2
3.7150	0.2
3.7200	0.2
3.7250	0.2
3.7300	0.2
3.7350	0.2
3.7400	0.2
3.7450	0.2
3.7500	0.2
3.7550	0.2
3.7600	0.2
3.7650	0.2
3.7700	0.2
3.7750	0.2
3.7800	0.2
3.7850	0.2
3.7900	0.2
3.7950	0.2
3.8000	0.2
3.8050	0.2
3.8100	0.2
3.8150	0.2
3.8200	0.2
3.8250	0.2
3.8300	0.2
3.8350	0.2
3.8400	0.2
3.8450	0.2
3.8500	0.2
3.8550	0.2
3.8600	0.2
3.8650	0.2
3.8700	0.2
3.8750	0.2
3.8800	0.2
3.8850	0.2
3.8900	0.2
3.8950	0.2
3.9000	0.2
3.9050	0.2
3.9100	0.2
3.9150	0.2
3.9200	0.2
3.9250	0.2
3.9300	0.2
3.9350	0.2
3.9400	0.2
3.9450	0.2
3.9500	0.2
3.9550	0.2
3.9600	0.2
3.9650	0.2
3.9700	0.2
3.9750	0.2
3.9800	0.2
3.9850	0.2
3.9900	0.2
3.9950	0.2
4.0000	0.2
4.0050	0.2
4.0100	0.2
4.0150	0.2
4.0200	0.2
4.0250	0.2
4.0300	0.2
4.0350	0.2
4.0400	0.2
4.0450	0.2
4.0500	0.2
4.0550	0.2
4.0600	0.2
4.0650	0.2
4.0700	0.2
4.0750	0.2
4.0800	0.2
4.0850	0.2
4.0900	0.2
4.0950	0.2
4.1000	0.2
4.1050	0.2
4.1100	0.2
4.1150	0.2
4.1200	0.2
4.1250	0.2
4.1300	0.2
4.1350	0.2
4.1400	0.2
4.1450	0.2
4.1500	0.2
4.1550	0.2
4.1600	0.2
4.1650	0.2
4.1700	0.2
4.1750	0.2
4.1800	0.2
4.1850	0.2
4.1900	0.2
4.1950	0.2
4.2000	0.2
4.2050	0.2
4.2100	0.2
4.2150	0.2
4.2200	0.2
4.2250	0.2
4.2300	0.2
4.2350	0.2
4.2400	0.2
4.2450	0.2
4.2500	0.5
4.2550	0.8
4.2600	0.9
4.2650	0.9
4.2700	0.8
4.2750	0.7
4.2800	0.6
4.2850	0.6
4.2900	0.6
4.2950	0.6
4.3000	0.6
4.3050	0.6
4.3100	0.5
4.3150	0.6
4.3200	0.7
4.3250	0.9
4.3300	1.3
4.3350	1.5
4.3400	1.5
4.3450	1.5
4.3500	1.6
4.3550	1.5
4.3600	1.3
4.3650	1.2
4.3700	1.4
4.3750	1.4
4.3800	1.2
4.3850	1.2
4.3900	1.4
4.3950	1.3
4.4000	1.3
4.4050	1.5
4.4100	1.7
4.4150	1.7
4.4200	1.8
4.4250	1.9
4.4300	1.9
4.4350	1.9
4.4400	1.8
4.4450	1.6
4.4500	1.6
4.4550	1.8
4.4600	1.6
4.4650	1.5
4.4700	1.7
4.4750	1.8
4.4800	1.7
4.4850	1.8
4.4900	1.9
4.4950	2.0
4.5000	2.1
4.5050	2.0
4.5100	2.1
4.5150	2.1
4.5200	1.9
4.5250	1.8
4.5300	2.0
4.5350	1.9
4.5400	1.7
4.5450	1.9
4.5500	1.9
4.5550	1.8
4.5600	2.0
4.5650	2.0
4.5700	2.0
4.5750	2.2
4.5800	2.1
4.5850	2.1
4.5900	2.2
4.5950	2.1
4.6000	2.0
4.6050	2.1
4.6100	2.0
4.6150	1.8
4.6200	2.0
4.6250	2.0
4.6300	1.9
4.6350	2.1
4.6400	2.1
4.6450	2.0
4.6500	2.2
4.6550	2.2
4.6600	2.1
4.6650	2.2
4.6700	2.2
4.6750	2.0
4.6800	2.1
4.6850	2.0
4.6900	1.9
4.6950	2.1
4.7000	2.0
4.7050	2.0
4.7100	2.1
4.7150	2.1
4.7200	2.1
4.7250	2.2
4.7300	2.2
4.7350	2.1
4.7400	2.2
4.7450	2.1
4.7500	2.1
4.7550	2.1
4.7600	2.1
4.7650	2.0
4.7700	2.1
4.7750	2.0
4.7800	2.0
4.7850	2.1
4.7900	2.1
4.7950	2.1
4.8000	2.1
4.8050	2.1
4.8100	2.2
4.8150	2.2
4.8200	2.1
4.8250	2.2
4.8300	2.1
4.8350	2.1
4.8400	2.1
4.8450	2.0
4.8500	2.0
4.8550	2.1
4.8600	2.0
4.8650	2.1
4.8700	2.2
4.8750	2.1
4.8800	2.1
4.8850	2.2
4.8900	2.1
4.8950	2.2
4.9000	2.2
4.9050	2.1
4.9100	2.1
4.9150	2.1
4.9200	2.0
4.9250	2.1
4.9300	2.1
4.9350	2.0
4.9400	2.1
4.9450	2.1
4.9500	2.1
4.9550	2.2
4.9600	2.2
4.9650	2.1
4.9700	2.2
4.9750	2.1
4.9800	2.1
4.9850	2.1
4.9900	2.1
4.9950	2.1
5.0000	2.1
5.0050	2.1
5.0100	2.1
5.0150	2.1
5.0200	2.1
5.0250	2.1
5.0300	2.2
5.0350	2.1
5.0400	2.2
5.0450	2.2
5.0500	2.1
5.0550	2.1
5.0600	2.1
5.0650	2.1
5.0700	2.1
5.0750	2.1
5.0800	2.0
5.0850	2.1
5.0900	2.1
5.0950	2.1
5.1000	2.2
5.1050	2.1
5.1100	2.1
5.1150	2.2
5.1200	2.1
5.1250	2.1
5.1300	2.2
5.1350	2.1
5.1400	2.1
5.1450	2.1
5.1500	2.1
5.1550	2.1
5.1600	2.1
5.1650	2.1
5.1700	2.1
5.1750	2.2
5.1800	2.1
5.1850	2.1
5.1900	2.2
5.1950	2.1
5.2000	2.1
5.2050	2.1
5.2100	2.1
5.2150	2.1
5.2200	2.1
5.2250	2.1
5.2300	2.1
5.2350	2.1
5.2400	2.1
5.2450	2.1
5.2500	2.1
5.2550	2.1
5.2600	2.2
5.2650	2.1
5.2700	2.1
5.2750	2.2
5.2800	2.1
5.2850	2.1
5.2900	2.1
5.2950	2.1
5.3000	2.1
5.3050	2.1
5.3100	2.1
5.3150	2.1
5.3200	2.1
5.3250	2.1
5.3300	2.1
5.3350	2.1
5.3400	2.1
5.3450	2.2
5.3500	2.2
5.3550	2.1
5.3600	2.1
5.3650	2.1
5.3700	2.1
5.3750	2.1
5.3800	2.1
5.3850	2.1
5.3900	2.1
5.3950	2.1
5.4000	2.1
5.4050	2.1
5.4100	2.1
5.4150	2.1
5.4200	2.2
5.4250	2.1
5.4300	2.1
5.4350	2.2
5.4400	2.1
5.4450	2.1
5.4500	2.1
5.4550	2.0
5.4600	2.1
5.4650	2.1
5.4700	2.1
5.4750	2.1
5.4800	2.1
5.4850	2.1
5.4900	2.2
5.4950	2.1
5.5000	2.1
5.5050	2.2
5.5100	2.1
5.5150	2.1
5.5200	2.1
5.5250	2.1
5.5300	2.1
5.5350	2.1
5.5400	2.1
5.5450	2.1
5.5500	2.1
5.5550	2.1
5.5600	2.1
5.5650	2.2
5.5700	2.1
5.5750	2.1
5.5800	2.2
5.5850	2.1
5.5900	2.1
5.5950	2.1
5.6000	2.1
5.6050	2.1
5.6100	2.1
5.6150	2.0
5.6200	2.1
5.6250	2.1
5.6300	2.1
5.6350	2.2
5.6400	2.1
5.6450	2.1
5.6500	2.2
5.6550	2.1
5.6600	2.1
5.6650	2.1
5.6700	2.1
5.6750	2.1
5.6800	2.1
5.6850	2.1
5.6900	2.1
5.6950	2.1
5.7000	2.1
5.7050	2.1
5.7100	2.2
5.7150	2.1
5.7200	2.1
5.7250	2.2
5.7300	2.1
5.7350	2.1
5.7400	2.1
5.7450	2.1
5.7500	2.1
5.7550	2.1
5.7600	2.0
5.7650	2.1
5.7700	2.1
5.7750	2.1
5.7800	2.1
5.7850	2.1
5.7900	2.1
5.7950	2.2
5.8000	2.1
5.8050	2.1
5.8100	2.1
5.8150	2.1
5.8200	2.1
5.8250	2.1
5.8300	2.1
5.8350	2.1
5.8400	2.1
5.8450	2.1
5.8500	2.1
5.8550	2.2
5.8600	2.1
5.8650	2.1
5.8700	2.1
5.8750	2.1
5.8800	2.1
5.8850	2.1
5.8900	2.1
5.8950	2.1
5.9000	2.1
5.9050	2.1
5.9100	2.1
5.9150	2.1
5.9200	2.1
5.9250	2.1
5.9300	2.1
5.9350	2.1
5.9400	2.1
5.9450	2.1
5.9500	2.1
5.9550	2.2
5.9600	2.1
5.9650	2.1
5.9700	2.2
5.9750	2.1
5.9800	2.1
5.9850	2.1
5.9900	2.1
5.9950	2.1
6.0000	2.1
6.0050	2.1
6.0100	2.1
6.0150	2.1
6.0200	2.1
6.0250	2.1
6.0300	2.1
6.0350	2.1
6.0400	2.1
6.0450	2.1
6.0500	2.1
6.0550	2.1
6.0600	2.1
6.0650	2.1
6.0700	2.1
6.0750	2.1
6.0800	2.1
6.0850	2.2
6.0900	2.1
6.0950	2.1
6.1000	2.2
6.1050	2.1
6.1100	2.1
6.1150	2.2
6.1200	2.1
6.1250	2.1
6.1300	2.1
6.1350	2.0
6.1400	2.1
6.1450	2.1
6.1500	2.1
6.1550	2.1
6.1600	2.1
6.1650	2.1
6.1700	2.1
6.1750	2.1
6.1800	2.1
6.1850	2.1
6.1900	2.1
6.1950	2.1
6.2000	2.1
6.2050	2.1
6.2100	2.1
6.2150	2.2
6.2200	2.1
6.2250	2.1
6.2300	2.2
6.2350	2.1
6.2400	2.1
6.2450	2.1
6.2500	2.1
6.2550	2.1
6.2600	2.1
6.2650	2.1
6.2700	2.1
6.2750	2.1
6.2800	2.1
6.2850	2.1
6.2900	2.1
6.2950	2.1
6.3000	2.1
6.3050	2.1
6.3100	2.1
6.3150	2.1
6.3200	2.1
6.3250	2.1
6.3300	2.1
6.3350	2.1
6.3400	2.1
6.3450	2.2
6.3500	2.1
6.3550	2.1
6.3600	2.2
6.3650	2.1
6.3700	2.1
6.3750	2.1
6.3800	2.1
6.3850	2.1
6.3900	2.2
6.3950	2.1
6.4000	2.1
6.4050	2.1
6.4100	2.1
6.4150	2.1
6.4200	2.1
6.4250	2.1
6.4300	2.1
6.4350	2.1
6.4400	2.0
6.4450	2.1
6.4500	2.1
6.4550	2.1
6.4600	2.1
6.4650	2.1
6.4700	2.1
6.4750	2.2
6.4800	2.1
6.4850	2.1
6.4900	2.1
6.4950	2.1
6.5000	2.1
6.5050	2.2
6.5100	2.1
6.5150	2.1
6.5200	2.1
6.5250	2.1
6.5300	2.1
6.5350	2.1
6.5400	2.1
6.5450	2.1
6.5500	2.1
6.5550	2.1
6.5600	2.1
6.5650	2.1
6.5700	2.1
6.5750	2.1
6.5800	2.1
6.5850	2.1
6.5900	2.1
6.5950	2.1
6.6000	2.1
6.6050	2.2
6.6100	2.1
6.6150	2.1
6.6200	2.1
6.6250	2.1
6.6300	2.1
6.6350	2.2
6.6400	2.1
6.6450	2.1
6.6500	2.1
6.6550	2.1
6.6600	2.1
6.6650	2.1
6.6700	2.1
6.6750	2.1
6.6800	2.1
6.6850	2.1
6.6900	2.1
6.6950	2.1
6.7000	2.1
6.7050	2.1
6.7100	2.1
6.7150	2.1
6.7200	2.1
6.7250	2.1
6.7300	2.1
6.7350	2.1
6.7400	2.1
6.7450	2.1
6.7500	2.1
6.7550	2.1
6.7600	2.1
6.7650	2.1
6.7700	2.1
6.7750	2.1
6.7800	2.1
6.7850	2.1
6.7900	2.1
6.7950	2.1
6.8000	2.1
6.8050	2.1
6.8100	2.1
6.8150	2.1
6.8200	2.1
6.8250	2.1
6.8300	2.1
6.8350	2.1
6.8400	2.1
6.8450	2.1
6.8500	2.1
6.8550	2.1
6.8600	2.1
6.8650	2.1
6.8700	2.1
6.8750	2.1
6.8800	2.1
6.8850	2.1
6.8900	2.1
6.8950	2.1
6.9000	2.1
6.9050	2.1
6.9100	2.1
6.9150	2.1
6.9200	2.1
6.9250	2.1
6.9300	2.1
6.9350	2.1
6.9400	2.1
6.9450	2.1
6.9500	2.1
6.9550	2.1
6.9600	2.1
6.9650	2.1
6.9700	2.1
6.9750	2.0
6.9800	2.1
6.9850	2.1
6.9900	2.1
6.9950	2.1
7.0000	2.1
7.0050	2.1
7.0100	2.1
7.0150	2.1
7.0200	2.1
7.0250	2.1
7.0300	2.1
7.0350	2.1
7.0400	2.1
7.0450	2.1
7.0500	2.1
7.0550	2.1
7.0600	2.1
7.0650	2.1
7.0700	2.1
7.0750	2.1
7.0800	2.1
7.0850	2.1
7.0900	2.1
7.0950	2.1
7.1000	2.1
7.1050	2.0
7.1100	2.1
7.1150	2.1
7.1200	2.1
7.1250	2.1
7.1300	2.1
7.1350	2.1
7.1400	2.1
7.1450	2.1
7.1500	2.1
7.1550	2.1
7.1600	2.1
7.1650	2.1
7.1700	2.1
7.1750	2.1
7.1800	2.1
7.1850	2.1
7.1900	2.1
7.1950	2.1
7.2000	2.1
7.2050	2.0
7.2100	2.1
7.2150	2.1
7.2200	2.0
7.2250	2.1
7.2300	2.1
7.2350	2.0
7.2400	2.1
7.2450	2.1
7.2500	2.1
7.2550	2.1
7.2600	2.1
7.2650	2.0
7.2700	2.1
7.2750	2.1
7.2800	2.1
7.2850	2.1
7.2900	2.1
7.2950	2.1
7.3000	2.1
7.3050	2.1
7.3100	2.1
7.3150	2.1
7.3200	2.1
7.3250	2.1
7.3300	2.1
7.3350	2.0
7.3400	2.1
7.3450	2.1
7.3500	2.0
7.3550	2.1
7.3600	2.1
7.3650	2.0
7.3700	2.1
7.3750	2.1
7.3800	2.1
7.3850	2.1
7.3900	2.1
7.3950	2.1
7.4000	2.1
7.4050	2.1
7.4100	2.1
7.4150	2.1
7.4200	2.1
7.4250	2.1
7.4300	2.1
7.4350	2.1
7.4400	2.1
7.4450	2.1
7.4500	2.1
7.4550	2.1
7.4600	2.1
7.4650	2.0
7.4700	2.1
7.4750	2.1
7.4800	2.0
7.4850	2.1
7.4900	2.1
7.4950	2.1
7.5000	2.1
7.5050	2.1
7.5100	2.1
7.5150	2.1
7.5200	2.1
7.5250	2.1
7.5300	2.1
7.5350	2.1
7.5400	2.1
7.5450	2.1
7.5500	2.1
7.5550	2.1
7.5600	2.1
7.5650	2.1
7.5700	2.1
7.5750	2.1
7.5800	2.1
7.5850	2.1
7.5900	2.1
7.5950	2.1
7.6000	2.1
7.6050	2.1
7.6100	2.1
7.6150	2.1
7.6200	2.1
7.6250	2.1
7.6300	2.1
7.6350	2.1
7.6400	2.0
7.6450	2.1
7.6500	2.1
7.6550	2.1
7.6600	2.1
7.6650	2.1
7.6700	2.1
7.6750	2.1
7.6800	2.1
7.6850	2.1
7.6900	2.1
7.6950	2.1
7.7000	2.1
7.7050	2.1
7.7100	2.1
7.7150	2.1
7.7200	2.1
7.7250	2.1
7.7300	2.1
7.7350	2.1
7.7400	2.1
7.7450	2.1
7.7500	2.1
7.7550	2.1
7.7600	2.1
7.7650	2.1
7.7700	2.0
7.7750	2.1
7.7800	2.1
7.7850	2.1
7.7900	2.1
7.7950	2.1
7.8000	2.1
7.8050	2.1
7.8100	2.1
7.8150	2.1
7.8200	2.1
7.8250	2.1
7.8300	2.1
7.8350	2.1
7.8400	2.1
7.8450	2.1
7.8500	2.1
7.8550	2.1
7.8600	2.1
7.8650	2.1
7.8700	2.0
7.8750	2.1
7.8800	2.1
7.8850	2.1
7.8900	2.1
7.8950	2.1
7.9000	2.1
7.9050	2.1
7.9100	2.1
7.9150	2.1
7.9200	2.1
7.9250	2.1
7.9300	2.1
7.9350	2.2
7.9400	2.1
7.9450	2.1
7.9500	2.1
7.9550	2.1
7.9600	2.1
7.9650	2.1
7.9700	2.1
7.9750	2.1
7.9800	2.1
7.9850	2.1
7.9900	2.1
7.9950	2.1
8.0000	2.1
8.0050	2.1
8.0100	2.1
8.0150	2.1
8.0200	2.1
8.0250	2.1
8.0300	2.1
8.0350	2.1
8.0400	2.1
8.0450	2.1
8.0500	2.2
8.0550	2.1
8.0600	2.1
8.0650	2.1
8.0700	2.1
8.0750	2.1
8.0800	2.1
8.0850	2.1
8.0900	2.1
8.0950	2.1
8.1000	2.1
8.1050	2.1
8.1100	2.1
8.1150	2.1
8.1200	2.1
8.1250	2.1
8.1300	2.1
8.1350	2.1
8.1400	2.1
8.1450	2.0
8.1500	2.1
8.1550	2.1
8.1600	2.0
8.1650	2.1
8.1700	2.1
8.1750	2.1
8.1800	2.1
8.1850	2.1
8.1900	2.1
8.1950	2.1
8.2000	2.1
8.2050	2.1
8.2100	2.2
8.2150	2.1
8.2200	2.1
8.2250	2.1
8.2300	2.1
8.2350	2.1
8.2400	2.1
8.2450	2.1
8.2500	2.1
8.2550	2.1
8.2600	2.0
8.2650	2.1
8.2700	2.1
8.2750	2.1
8.2800	2.1
8.2850	2.1
8.2900	2.1
8.2950	2.1
8.3000	2.1
8.3050	2.1
8.3100	2.1
8.3150	2.1
8.3200	2.1
8.3250	2.2
8.3300	2.1
8.3350	2.1
8.3400	2.1
8.3450	2.1
8.3500	2.1
8.3550	2.1
8.3600	2.1
8.3650	2.1
8.3700	2.1
8.3750	2.1
8.3800	2.1
8.3850	2.1
8.3900	2.1
8.3950	2.1
8.4000	2.1
8.4050	2.1
8.4100	2.1
8.4150	2.1
8.4200	2.1
8.4250	2.2
8.4300	2.1
8.4350	2.1
8.4400	2.1
8.4450	2.1
8.4500	2.1
8.4550	2.1
8.4600	2.1
8.4650	2.1
8.4700	2.1
8.4750	2.1
8.4800	2.1
8.4850	2.1
8.4900	2.1
8.4950	2.1
8.5000	2.1
8.5050	2.1
8.5100	2.1
8.5150	2.1
8.5200	2.1
8.5250	2.1
8.5300	2.1
8.5350	2.1
8.5400	2.1
8.5450	2.1
8.5500	2.1
8.5550	2.1
8.5600	2.1
8.5650	2.1
8.5700	2.1
8.5750	2.1
8.5800	2.1
8.5850	2.1
8.5900	2.1
8.5950	2.1
8.6000	2.1
8.6050	2.0
8.6100	2.1
8.6150	2.1
8.6200	2.1
8.6250	2.1
8.6300	2.1
8.6350	2.1
8.6400	2.1
8.6450	2.1
8.6500	2.1
8.6550	2.1
8.6600	2.1
8.6650	2.1
8.6700	2.1
8.6750	2.1
8.6800	2.1
8.6850	2.1
8.6900	2.1
8.6950	2.1
8.7000	2.1
8.7050	2.1
8.7100	2.1
8.7150	2.1
8.7200	2.1
8.7250	2.1
8.7300	2.1
8.7350	2.1
8.7400	2.1
8.7450	2.1
8.7500	2.1
8.7550	2.1
8.7600	2.1
8.7650	2.1
8.7700	2.1
8.7750	2.1
8.7800	2.1
8.7850	2.1
8.7900	2.1
8.7950	2.1
8.8000	2.1
8.8050	2.1
8.8100	2.1
8.8150	2.1
8.8200	2.1
8.8250	2.1
8.8300	2.1
8.8350	2.1
8.8400	2.1
8.8450	2.1
8.8500	2.1
8.8550	2.1
8.8600	2.1
8.8650	2.1
8.8700	2.1
8.8750	2.1
8.8800	2.1
8.8850	2.1
8.8900	2.1
8.8950	2.0
8.9000	2.1
8.9050	2.1
8.9100	2.1
8.9150	2.1
8.9200	2.1
8.9250	2.1
8.9300	2.1
8.9350	2.1
8.9400	2.0
8.9450	2.1
8.9500	2.1
8.9550	2.1
8.9600	2.1
8.9650	2.1
8.9700	2.1
8.9750	2.1
8.9800	2.1
8.9850	2.1
8.9900	2.1
8.9950	2.0
9.0000	2.1
9.0050	2.1
9.0100	2.1
9.0150	2.1
9.0200	2.1
9.0250	2.0
9.0300	2.1
9.0350	2.1
9.0400	2.1
9.0450	2.1
9.0500	2.1
9.0550	2.0
9.0600	2.1
9.0650	2.1
9.0700	2.0
9.0750	2.1
9.0800	2.1
9.0850	2.1
9.0900	2.1
9.0950	2.1
9.1000	2.1
9.1050	2.1
9.1100	2.1
9.1150	2.1
9.1200	2.1
9.1250	2.0
9.1300	2.1
9.1350	2.1
9.1400	2.0
9.1450	2.1
9.1500	2.1
9.1550	2.0
9.1600	2.1
9.1650	2.1
9.1700	2.1
9.1750	2.1
9.1800	2.1
9.1850	2.1
9.1900	2.1
9.1950	2.1
9.2000	2.0
9.2050	2.0
9.2100	1.9
9.2150	1.8
9.2200	1.8
9.2250	1.6
9.2300	1.5
9.2350	1.5
9.2400	1.4
9.2450	1.3
9.2500	1.5
9.2550	1.4
9.2600	1.3
9.2650	1.4
9.2700	1.5
9.2750	1.3
9.2800	1.3
9.2850	1.4
9.2900	1.3
9.2950	1.2
9.3000	1.1
9.3050	1.1
9.3100	1.1
9.3150	0.9
9.3200	1.0
9.3250	1.1
9.3300	1.0
9.3350	0.9
9.3400	1.0
9.3450	1.1
9.3500	0.9
9.3550	0.9
9.3600	1.0
9.3650	1.0
9.3700	0.9
9.3750	0.8
9.3800	0.8
9.3850	0.9
9.3900	0.9
9.3950	0.7
9.4000	0.6
9.4050	0.8
9.4100	0.8
9.4150	0.7
9.4200	0.6
9.4250	0.8
9.4300	0.9
9.4350	0.8
9.4400	0.6
9.4450	0.7
9.4500	0.8
9.4550	0.7
9.4600	0.6
9.4650	0.6
9.4700	0.6
9.4750	0.5
9.4800	0.6
9.4850	0.6
9.4900	0.6
9.4950	0.5
9.5000	0.6
9.5050	0.6
9.5100	0.7
9.5150	0.6
9.5200	0.5
9.5250	0.6
9.5300	0.6
9.5350	0.5
9.5400	0.5
9.5450	0.5
9.5500	0.4
9.5550	0.5
9.5600	0.5
9.5650	0.4
9.5700	0.5
9.5750	0.5
9.5800	0.4
9.5850	0.5
9.5900	0.5
9.5950	0.4
9.6000	0.4
9.6050	0.4
9.6100	0.5
9.6150	0.4
9.6200	0.4
9.6250	0.4
9.6300	0.4
9.6350	0.4
9.6400	0.4
9.6450	0.4
9.6500	0.4
9.6550	0.4
9.6600	0.3
9.6650	0.4
9.6700	0.4
9.6750	0.4
9.6800	0.4
9.6850	0.4
9.6900	0.4
9.6950	0.4
9.7000	0.3
9.7050	0.3
9.7100	0.4
9.7150	0.3
9.7200	0.3
9.7250	0.3
9.7300	0.3
9.7350	0.3
9.7400	0.3
9.7450	0.3
9.7500	0.3
9.7550	0.4
9.7600	0.3
9.7650	0.3
9.7700	0.3
9.7750	0.3
9.7800	0.3
9.7850	0.3
9.7900	0.3
9.7950	0.3
9.8000	0.3
9.8050	0.3
9.8100	0.3
9.8150	0.3
9.8200	0.3
9.8250	0.3
9.8300	0.3
9.8350	0.3
9.8400	0.3
9.8450	0.3
9.8500	0.3
9.8550	0.3
9.8600	0.3
9.8650	0.2
9.8700	0.2
9.8750	0.2
9.8800	0.3
9.8850	0.3
9.8900	0.3
9.8950	0.3
9.9000	0.2
9.9050	0.2
9.9100	0.3
9.9150	0.3
9.9200	0.2
9.9250	0.2
9.9300	0.3
9.9350	0.2
9.9400	0.2
9.9450	0.2
9.9500	0.2
9.9550	0.2
9.9600	0.2
9.9650	0.2
9.9700	0.2
9.9750	0.2
9.9800	0.2
9.9850	0.2
9.9900	0.2
9.9950	0.2
10.0000	0.2
10.0050	0.2
10.0100	0.2
10.0150	0.2
10.0200	0.2
10.0250	0.2
10.0300	0.2
10.0350	0.2
10.0400	0.2
10.0450	0.2
10.0500	0.2
10.0550	0.2
10.0600	0.2
10.0650	0.2
10.0700	0.2
10.0750	0.2
10.0800	0.2
10.0850	0.2
10.0900	0.2
10.0950	0.2
10.1000	0.2
10.1050	0.2
10.1100	0.2
10.1150	0.2
10.1200	0.2
10.1250	0.2
10.1300	0.2
10.1350	0.2
10.1400	0.2
10.1450	0.2
10.1500	0.2
10.1550	0.2
10.1600	0.2
10.1650	0.2
10.1700	0.2
10.1750	0.2
10.1800	0.2
10.1850	0.2
10.1900	0.2
10.1950	0.2
10.2000	0.2
10.2050	0.2
10.2100	0.2
10.2150	0.2
10.2200	0.2
10.2250	0.2
10.2300	0.2
10.2350	0.2
10.2400	0.2
10.2450	0.2
10.2500	0.2
10.2550	0.2
10.2600	0.2
10.2650	0.2
10.2700	0.2
10.2750	0.2
10.2800	0.2
10.2850	0.2
10.2900	0.2
10.2950	0.2
10.3000	0.2
10.3050	0.2
10.3100	0.2
10.3150	0.2
10.3200	0.2
10.3250	0.2
10.3300	0.2
10.3350	0.2
10.3400	0.2
10.3450	0.2
10.3500	0.2
10.3550	0.2
10.3600	0.2
10.3650	0.2
10.3700	0.2
10.3750	0.2
10.3800	0.2
10.3850	0.2
10.3900	0.2
10.3950	0.2
10.4000	0.2
10.4050	0.2
10.4100	0.2
10.4150	0.2
10.4200	0.2
10.4250	0.2
10.4300	0.2
10.4350	0.2
10.4400	0.2
10.4450	0.2
10.4500	0.2
10.4550	0.2
10.4600	0.2
10.4650	0.2
10.4700	0.2
10.4750	0.2
10.4800	0.2
10.4850	0.2
10.4900	0.2
10.4950	0.2
10.5000	0.2
10.5050	0.2
10.5100	0.2
10.5150	0.2
10.5200	0.2
10.5250	0.2
10.5300	0.2
10.5350	0.2
10.5400	0.2
10.5450	0.2
10.5500	0.2
10.5550	0.2
10.5600	0.2
10.5650	0.2
10.5700	0.2
10.5750	0.2
10.5800	0.2
10.5850	0.2
10.5900	0.2
10.5950	0.2
10.6000	0.2
10.6050	0.2
10.6100	0.2
10.6150	0.2
10.6200	0.2
10.6250	0.2
10.6300	0.2
10.6350	0.2
10.6400	0.2
10.6450	0.2
10.6500	0.2
10.6550	0.2
10.6600	0.2
10.6650	0.2
10.6700	0.2
10.6750	0.2
10.6800	0.2
10.6850	0.2
10.6900	0.2
10.6950	0.2
10.7000	0.2
10.7050	0.2
10.7100	0.2
10.7150	0.2
10.7200	0.2
10.7250	0.2
10.7300	0.2
10.7350	0.2
10.7400	0.2
10.7450	0.2
10.7500	0.2
10.7550	0.2
10.7600	0.2
10.7650	0.2
10.7700	0.2
10.7750	0.2
10.7800	0.2
10.7850	0.2
10.7900	0.2
10.7950	0.2
10.8000	0.2
10.8050	0.2
10.8100	0.2
10.8150	0.2
10.8200	0.2
10.8250	0.2
10.8300	0.2
10.8350	0.2
10.8400	0.2
10.8450	0.2
10.8500	0.2
10.8550	0.2
10.8600	0.2
10.8650	0.2
10.8700	0.2
10.8750	0.2
10.8800	0.2
10.8850	0.2
10.8900	0.2
10.8950	0.2
10.9000	0.2
10.9050	0.2
10.9100	0.2
10.9150	0.2
10.9200	0.2
10.9250	0.2
10.9300	0.2
10.9350	0.2
10.9400	0.2
10.9450	0.2
10.9500	0.2
10.9550	0.2
10.9600	0.2
10.9650	0.2
10.9700	0.2
10.9750	0.2
10.9800	0.2
10.9850	0.2
10.9900	0.2
10.9950	0.2
11.0000	0.2
11.0050	0.2
11.0100	0.2
11.0150	0.2
11.0200	0.2
11.0250	0.2
11.0300	0.2
11.0350	0.2
11.0400	0.2
11.0450	0.2
11.0500	0.2
11.0550	0.2
11.0600	0.2
11.0650	0.2
11.0700	0.2
11.0750	0.2
11.0800	0.2
11.0850	0.2
11.0900	0.2
11.0950	0.2
11.1000	0.2
11.1050	0.2
11.1100	0.2
11.1150	0.2
11.1200	0.2
11.1250	0.2
11.1300	0.2
11.1350	0.2
11.1400	0.2
11.1450	0.2
11.1500	0.2
11.1550	0.2
11.1600	0.2
11.1650	0.2
11.1700	0.2
11.1750	0.2
11.1800	0.2
11.1850	0.2
11.1900	0.2
11.1950	0.2
11.2000	0.2
11.2050	0.2
11.2100	0.2
11.2150	0.2
11.2200	0.2
11.2250	0.2
11.2300	0.2
11.2350	0.2
11.2400	0.2
11.2450	0.2
11.2500	0.2
11.2550	0.2
11.2600	0.2
11.2650	0.2
11.2700	0.2
11.2750	0.2
11.2800	0.2
11.2850	0.2
11.2900	0.2
11.2950	0.2
11.3000	0.2
11.3050	0.2
11.3100	0.2
11.3150	0.2
11.3200	0.2
11.3250	0.2
11.3300	0.2
11.3350	0.2
11.3400	0.2
11.3450	0.2
11.3500	0.2
11.3550	0.2
11.3600	0.2
11.3650	0.2
11.3700	0.2
11.3750	0.2
11.3800	0.2
11.3850	0.2
11.3900	0.2
11.3950	0.2
11.4000	0.2
11.4050	0.2
11.4100	0.2
11.4150	0.2
11.4200	0.2
11.4250	0.2
11.4300	0.2
11.4350	0.2
11.4400	0.2
11.4450	0.2
11.4500	0.2
11.4550	0.2
11.4600	0.2
11.4650	0.2
11.4700	0.2
11.4750	0.2
11.4800	0.2
11.4850	0.2
11.4900	0.2
11.4950	0.2
11.5000	0.2
11.5050	0.2
11.5100	0.2
11.5150	0.2
11.5200	0.2
11.5250	0.2
11.5300	0.2
11.5350	0.2
11.5400	0.2
11.5450	0.2
11.5500	0.2
11.5550	0.2
11.5600	0.2
11.5650	0.2
11.5700	0.2
11.5750	0.2
11.5800	0.2
11.5850	0.2
11.5900	0.2
11.5950	0.2
11.6000	0.2
11.6050	0.2
11.6100	0.2
11.6150	0.2
11.6200	0.2
11.6250	0.2
11.6300	0.2
11.6350	0.2
11.6400	0.2
11.6450	0.2
11.6500	0.2
11.6550	0.2
11.6600	0.2
11.6650	0.2
11.6700	0.2
11.6750	0.2
11.6800	0.2
11.6850	0.2
11.6900	0.2
11.6950	0.2
11.7000	0.2
11.7050	0.2
11.7100	0.2
11.7150	0.2
11.7200	0.2
11.7250	0.2
11.7300	0.2
11.7350	0.2
11.7400	0.2
11.7450	0.2
11.7500	0.2
11.7550	0.2
11.7600	0.2
11.7650	0.2
11.7700	0.2
11.7750	0.2
11.7800	0.2
11.7850	0.2
11.7900	0.2
11.7950	0.2
11.8000	0.2
11.8050	0.2
11.8100	0.2
11.8150	0.2
11.8200	0.2
11.8250	0.2
11.8300	0.2
11.8350	0.2
11.8400	0.2
11.8450	0.2
11.8500	0.2
11.8550	0.2
11.8600	0.2
11.8650	0.2
11.8700	0.2
11.8750	0.2
11.8800	0.2
11.8850	0.2
11.8900	0.2
11.8950	0.2
11.9000	0.2
11.9050	0.2
11.9100	0.2
11.9150	0.2
11.9200	0.2
11.9250	0.2
11.9300	0.2
11.9350	0.2
11.9400	0.2
11.9450	0.2
11.9500	0.2
11.9550	0.2
11.9600	0.2
11.9650	0.2
11.9700	0.2
11.9750	0.2
11.9800	0.2
11.9850	0.2
11.9900	0.2
11.9950	0.2
12.0000	0.2
12.0050	0.2
12.0100	0.2
12.0150	0.2
12.0200	0.2
12.0250	0.2
12.0300	0.2
12.0350	0.2
12.0400	0.2
12.0450	0.2
12.0500	0.2
12.0550	0.2
12.0600	0.2
12.0650	0.2
12.0700	0.2
12.0750	0.2
12.0800	0.2
12.0850	0.2
12.0900	0.2
12.0950	0.2
12.1000	0.2
12.1050	0.2
12.1100	0.2
12.1150	0.2
12.1200	0.2
12.1250	0.2
12.1300	0.2
12.1350	0.2
12.1400	0.2
12.1450	0.2
12.1500	0.2
12.1550	0.2
12.1600	0.2
12.1650	0.2
12.1700	0.2
12.1750	0.2
12.1800	0.2
12.1850	0.2
12.1900	0.2
12.1950	0.2
12.2000	0.2
12.2050	0.2
12.2100	0.2
12.2150	0.2
12.2200	0.2
12.2250	0.2
12.2300	0.2
12.2350	0.2
12.2400	0.2
12.2450	0.2
12.2500	0.2
12.2550	0.2
12.2600	0.2
12.2650	0.2
12.2700	0.2
12.2750	0.2
12.2800	0.2
12.2850	0.2
12.2900	0.2
12.2950	0.2
12.3000	0.2
12.3050	0.2
12.3100	0.2
12.3150	0.2
12.3200	0.2
12.3250	0.2
12.3300	0.2
12.3350	0.2
12.3400	0.2
12.3450	0.2
12.3500	0.2
12.3550	0.2
12.3600	0.2
12.3650	0.2
12.3700	0.2
12.3750	0.2
12.3800	0.2
12.3850	0.2
12.3900	0.2
12.3950	0.2
12.4000	0.2
12.4050	0.2
12.4100	0.2
12.4150	0.2
12.4200	0.2
12.4250	0.2
12.4300	0.2
12.4350	0.2
12.4400	0.2
12.4450	0.2
12.4500	0.2
12.4550	0.2
12.4600	0.2
12.4650	0.2
12.4700	0.2
12.4750	0.2
12.4800	0.2
12.4850	0.2
12.4900	0.2
12.4950	0.2
12.5000	0.2
12.5050	0.2
12.5100	0.2
12.5150	0.2
12.5200	0.2
12.5250	0.2
12.5300	0.2
12.5350	0.2
12.5400	0.2
12.5450	0.2
12.5500	0.2
12.5550	0.2
12.5600	0.2
12.5650	0.2
12.5700	0.2
12.5750	0.2
12.5800	0.2
12.5850	0.2
12.5900	0.2
12.5950	0.2
12.6000	0.2
12.6050	0.2
12.6100	0.2
12.6150	0.2
12.6200	0.2
12.6250	0.2
12.6300	0.2
12.6350	0.2
12.6400	0.2
12.6450	0.2
12.6500	0.2
12.6550	0.2
12.6600	0.2
12.6650	0.2
12.6700	0.2
12.6750	0.2
12.6800	0.2
12.6850	0.2
12.6900	0.2
12.6950	0.2
12.7000	0.2
12.7050	0.2
12.7100	0.2
12.7150	0.2
12.7200	0.2
12.7250	0.2
12.7300	0.2
12.7350	0.2
12.7400	0.2
12.7450	0.2
12.7500	0.2
12.7550	0.2
12.7600	0.2
12.7650	0.2
12.7700	0.2
12.7750	0.2
12.7800	0.2
12.7850	0.2
12.7900	0.2
12.7950	0.2
12.8000	0.2
12.8050	0.2
12.8100	0.2
12.8150	0.2
12.8200	0.2
12.8250	0.2
12.8300	0.2
12.8350	0.2
12.8400	0.2
12.8450	0.2
12.8500	0.2
12.8550	0.2
12.8600	0.2
12.8650	0.2
12.8700	0.2
12.8750	0.2
12.8800	0.2
12.8850	0.2
12.8900	0.2
12.8950	0.2
12.9000	0.2
12.9050	0.2
12.9100	0.2
12.9150	0.2
12.9200	0.2
12.9250	0.2
12.9300	0.2
12.9350	0.2
12.9400	0.2
12.9450	0.2
12.9500	0.2
12.9550	0.2
12.9600	0.2
12.9650	0.2
12.9700	0.2
12.9750	0.2
12.9800	0.2
12.9850	0.2
12.9900	0.2
12.9950	0.2
13.0000	0.2
13.0050	0.2
13.0100	0.2
13.0150	0.2
13.0200	0.2
13.0250	0.2
13.0300	0.2
13.0350	0.2
13.0400	0.2
13.0450	0.2
13.0500	0.2
13.0550	0.2
13.0600	0.2
13.0650	0.2
13.0700	0.2
13.0750	0.2
13.0800	0.2
13.0850	0.2
13.0900	0.2
13.0950	0.2
13.1000	0.2
13.1050	0.2
13.1100	0.2
13.1150	0.2
13.1200	0.2
13.1250	0.2
13.1300	0.2
13.1350	0.2
13.1400	0.2
13.1450	0.2
13.1500	0.2
13.1550	0.2
13.1600	0.2
13.1650	0.2
13.1700	0.2
13.1750	0.2
13.1800	0.2
13.1850	0.2
13.1900	0.2
13.1950	0.2
13.2000	0.2
13.2050	0.2
13.2100	0.2
13.2150	0.2
13.2200	0.2
13.2250	0.2
13.2300	0.2
13.2350	0.2
13.2400	0.2
13.2450	0.2
13.2500	0.2
13.2550	0.2
13.2600	0.2
13.2650	0.2
13.2700	0.2
13.2750	0.2
13.2800	0.2
13.2850	0.2
13.2900	0.2
13.2950	0.2
13.3000	0.2
13.3050	0.2
13.3100	0.2
13.3150	0.2
13.3200	0.2
13.3250	0.2
13.3300	0.2
13.3350	0.2
13.3400	0.2
13.3450	0.2
13.3500	0.2
13.3550	0.2
13.3600	0.2
13.3650	0.2
13.3700	0.2
13.3750	0.2
13.3800	0.2
13.3850	0.2
13.3900	0.2
13.3950	0.2
13.4000	0.2
13.4050	0.2
13.4100	0.2
13.4150	0.2
13.4200	0.2
13.4250	0.2
13.4300	0.2
13.4350	0.2
13.4400	0.2
13.4450	0.2
13.4500	0.2
13.4550	0.2
13.4600	0.2
13.4650	0.2
13.4700	0.2
13.4750	0.2
13.4800	0.2
13.4850	0.2
13.4900	0.2
13.4950	0.2
13.5000	0.2
13.5050	0.2
13.5100	0.2
13.5150	0.2
13.5200	0.2
13.5250	0.2
13.5300	0.2
13.5350	0.2
13.5400	0.2
13.5450	0.2
13.5500	0.2
13.5550	0.2
13.5600	0.2
13.5650	0.2
13.5700	0.2
13.5750	0.2
13.5800	0.2
13.5850	0.2
13.5900	0.2
13.5950	0.2
13.6000	0.2
13.6050	0.2
13.6100	0.2
13.6150	0.2
13.6200	0.2
13.6250	0.2
13.6300	0.2
13.6350	0.2
13.6400	0.2
13.6450	0.2
13.6500	0.2
13.6550	0.2
13.6600	0.2
13.6650	0.2
13.6700	0.2
13.6750	0.2
13.6800	0.2
13.6850	0.2
13.6900	0.2
13.6950	0.2
13.7000	0.2
13.7050	0.2
13.7100	0.2
13.7150	0.2
13.7200	0.2
13.7250	0.2
13.7300	0.2
13.7350	0.2
13.7400	0.2
13.7450	0.2
13.7500	0.2
13.7550	0.2
13.7600	0.2
13.7650	0.2
13.7700	0.2
13.7750	0.2
13.7800	0.2
13.7850	0.2
13.7900	0.2
13.7950	0.2
13.8000	0.2
13.8050	0.2
13.8100	0.2
13.8150	0.2
13.8200	0.2
13.8250	0.2
13.8300	0.2
13.8350	0.2
13.8400	0.2
13.8450	0.2
13.8500	0.2
13.8550	0.2
13.8600	0.2
13.8650	0.2
13.8700	0.2
13.8750	0.2
13.8800	0.2
13.8850	0.2
13.8900	0.2
13.8950	0.2
13.9000	0.2
13.9050	0.2
13.9100	0.2
13.9150	0.2
13.9200	0.2
13.9250	0.2
13.9300	0.2
13.9350	0.2
13.9400	0.2
13.9450	0.2
13.9500	0.2
13.9550	0.2
13.9600	0.2
13.9650	0.2
13.9700	0.2
13.9750	0.2
13.9800	0.2
13.9850	0.2
13.9900	0.2
13.9950	0.2
14.0000	0.2
14.0050	0.2
14.0100	0.2
14.0150	0.2
14.0200	0.2
14.0250	0.2
14.0300	0.2
14.0350	0.2
14.0400	0.2
14.0450	0.2
14.0500	0.2
14.0550	0.2
14.0600	0.2
14.0650	0.2
14.0700	0.2
14.0750	0.2
14.0800	0.2
14.0850	0.2
14.0900	0.2
14.0950	0.2
14.1000	0.2
14.1050	0.2
14.1100	0.2
14.1150	0.2
14.1200	0.2
14.1250	0.2
14.1300	0.2
14.1350	0.2
14.1400	0.2
14.1450	0.2
14.1500	0.2
14.1550	0.2
14.1600	0.2
14.1650	0.2
14.1700	0.2
14.1750	0.2
14.1800	0.2
14.1850	0.2
14.1900	0.2
14.1950	0.2
14.2000	0.2
14.2050	0.2
14.2100	0.2
14.2150	0.2
14.2200	0.2
14.2250	0.2
14.2300	0.2
14.2350	0.2
14.2400	0.2
14.2450	0.2
14.2500	0.2
14.2550	0.2
14.2600	0.2
14.2650	0.2
14.2700	0.2
14.2750	0.2
14.2800	0.2
14.2850	0.2
14.2900	0.2
14.2950	0.2
14.3000	0.2
14.3050	0.2
14.3100	0.2
14.3150	0.2
14.3200	0.2
14.3250	0.2
14.3300	0.2
14.3350	0.2
14.3400	0.2
14.3450	0.2
14.3500	0.2
14.3550	0.2
14.3600	0.2
14.3650	0.2
14.3700	0.2
14.3750	0.2
14.3800	0.2
14.3850	0.2
14.3900	0.2
14.3950	0.2
14.4000	0.2
14.4050	0.2
14.4100	0.2
14.4150	0.2
14.4200	0.2
14.4250	0.2
14.4300	0.2
14.4350	0.2
14.4400	0.2
14.4450	0.2
14.4500	0.2
14.4550	0.2
14.4600	0.2
14.4650	0.2
14.4700	0.2
14.4750	0.2
14.4800	0.2
14.4850	0.2
14.4900	0.2
14.4950	0.2
14.5000	0.2
14.5050	0.2
14.5100	0.2
14.5150	0.2
14.5200	0.2
14.5250	0.2
14.5300	0.2
14.5350	0.2
14.5400	0.2
14.5450	0.2
14.5500	0.2
14.5550	0.2
14.5600	0.2
14.5650	0.2
14.5700	0.2
14.5750	0.2
14.5800	0.2
14.5850	0.2
14.5900	0.2
14.5950	0.2
14.6000	0.2
14.6050	0.2
14.6100	0.2
14.6150	0.2
14.6200	0.2
14.6250	0.2
14.6300	0.2
14.6350	0.2
14.6400	0.2
14.6450	0.2
14.6500	0.2
14.6550	0.2
14.6600	0.2
14.6650	0.2
14.6700	0.2
14.6750	0.2
14.6800	0.2
14.6850	0.2
14.6900	0.2
14.6950	0.2
14.7000	0.2
14.7050	0.2
14.7100	0.2
14.7150	0.2
14.7200	0.2
14.7250	0.2
14.7300	0.2
14.7350	0.2
14.7400	0.2
14.7450	0.2
14.7500	0.2
14.7550	0.2
14.7600	0.2
14.7650	0.2
14.7700	0.2
14.7750	0.2
14.7800	0.2
14.7850	0.2
14.7900	0.2
14.7950	0.2
14.8000	0.2
14.8050	0.2
14.8100	0.2
14.8150	0.2
14.8200	0.2
14.8250	0.2
14.8300	0.2
14.8350	0.2
14.8400	0.2
14.8450	0.2
14.8500	0.2
14.8550	0.2
14.8600	0.2
14.8650	0.2
14.8700	0.2
14.8750	0.2
14.8800	0.2
14.8850	0.2
14.8900	0.2
14.8950	0.2
14.9000	0.2
14.9050	0.2
14.9100	0.2
14.9150	0.2
14.9200	0.2
14.9250	0.2
14.9300	0.2
14.9350	0.2
14.9400	0.2
14.9450	0.2
14.9500	0.2
14.9550	0.2
14.9600	0.2
14.9650	0.2
14.9700	0.2
14.9750	0.2
14.9800	0.2
14.9850	0.2
14.9900	0.2
14.9950	0.2
15.0000	0.2
15.0050	0.2
15.0100	0.2
15.0150	0.2
15.0200	0.2
15.0250	0.2
15.0300	0.2
15.0350	0.2
15.0400	0.2
15.0450	0.2
15.0500	0.2
15.0550	0.2
15.0600	0.2
15.0650	0.2
15.0700	0.2
15.0750	0.2
15.0800	0.2
15.0850	0.2
15.0900	0.2
15.0950	0.2
15.1000	0.2
15.1050	0.2
15.1100	0.2
15.1150	0.2
15.1200	0.2
15.1250	0.2
15.1300	0.2
15.1350	0.2
15.1400	0.2
15.1450	0.2
15.1500	0.2
15.1550	0.2
15.1600	0.2
15.1650	0.2
15.1700	0.2
15.1750	0.2
15.1800	0.2
15.1850	0.2
15.1900	0.2
15.1950	0.2
15.2000	0.2
15.2050	0.2
15.2100	0.2
15.2150	0.2
15.2200	0.2
15.2250	0.2
15.2300	0.2
15.2350	0.2
15.2400	0.2
15.2450	0.2
15.2500	0.2
15.2550	0.2
15.2600	0.2
15.2650	0.2
15.2700	0.2
15.2750	0.2
15.2800	0.2
15.2850	0.2
15.2900	0.2
15.2950	0.2
15.3000	0.2
15.3050	0.2
15.3100	0.2
15.3150	0.2
15.3200	0.2
15.3250	0.2
15.3300	0.2
15.3350	0.2
15.3400	0.2
15.3450	0.2
15.3500	0.2
15.3550	0.2
15.3600	0.2
15.3650	0.2
15.3700	0.2
15.3750	0.2
15.3800	0.2
15.3850	0.2
15.3900	0.2
15.3950	0.2
15.4000	0.2
15.4050	0.2
15.4100	0.2
15.4150	0.2
15.4200	0.2
15.4250	0.2
15.4300	0.2
15.4350	0.2
15.4400	0.2
15.4450	0.2
15.4500	0.2
15.4550	0.2
15.4600	0.2
15.4650	0.2
15.4700	0.2
15.4750	0.2
15.4800	0.2
15.4850	0.2
15.4900	0.2
15.4950	0.2
15.5000	0.2
15.5050	0.2
15.5100	0.2
15.5150	0.2
15.5200	0.2
15.5250	0.2
15.5300	0.2
15.5350	0.2
15.5400	0.2
15.5450	0.2
15.5500	0.2
15.5550	0.2
15.5600	0.2
15.5650	0.2
15.5700	0.2
15.5750	0.2
15.5800	0.2
15.5850	0.2
15.5900	0.2
15.5950	0.2
15.6000	0.2
15.6050	0.2
15.6100	0.2
15.6150	0.2
15.6200	0.2
15.6250	0.2
15.6300	0.2
15.6350	0.2
15.6400	0.2
15.6450	0.2
15.6500	0.2
15.6550	0.2
15.6600	0.2
15.6650	0.2
15.6700	0.2
15.6750	0.2
15.6800	0.2
15.6850	0.2
15.6900	0.2
15.6950	0.2
15.7000	0.2
15.7050	0.2
15.7100	0.2
15.7150	0.2
15.7200	0.2
15.7250	0.2
15.7300	0.2
15.7350	0.2
15.7400	0.2
15.7450	0.2
15.7500	0.2
15.7550	0.2
15.7600	0.2
15.7650	0.2
15.7700	0.2
15.7750	0.4
15.7800	0.6
15.7850	0.8
15.7900	0.8
15.7950	0.7
15.8000	0.6
15.8050	0.6
15.8100	0.5
15.8150	0.6
15.8200	0.6
15.8250	0.5
15.8300	0.5
15.8350	0.5
15.8400	0.5
15.8450	0.6
15.8500	0.8
15.8550	1.0
15.8600	1.3
15.8650	1.4
15.8700	1.4
15.8750	1.3
15.8800	1.4
15.8850	1.4
15.8900	1.3
15.8950	1.2
15.9000	1.3
15.9050	1.3
15.9100	1.2
15.9150	1.1
15.9200	1.3
15.9250	1.4
15.9300	1.4
15.9350	1.5
15.9400	1.7
15.9450	1.8
15.9500	1.7
15.9550	1.8
15.9600	1.8
15.9650	1.7
15.9700	1.8
15.9750	1.7
15.9800	1.6
15.9850	1.7
15.9900	1.8
15.9950	1.6
16.0000	1.6
16.0050	1.8
16.0100	1.8
16.0150	1.8
16.0200	1.9
16.0250	2.0
16.0300	2.0
16.0350	2.0
16.0400	1.9
16.0450	2.0
16.0500	2.0
16.0550	1.8
16.0600	1.8
16.0650	2.0
16.0700	1.8
16.0750	1.7
16.0800	2.0
16.0850	1.9
16.0900	1.9
16.0950	2.1
16.1000	2.0
16.1050	2.0
16.1100	2.1
16.1150	2.1
16.1200	2.0
16.1250	2.1
16.1300	2.0
16.1350	1.9
16.1400	2.0
16.1450	1.9
16.1500	1.9
16.1550	2.1
16.1600	2.0
16.1650	2.0
16.1700	2.2
16.1750	2.1
16.1800	2.0
16.1850	2.3
16.1900	2.1
16.1950	2.0
16.2000	2.1
16.2050	2.1
16.2100	2.0
16.2150	2.1
16.2200	2.0
16.2250	2.0
16.2300	2.1
16.2350	2.0
16.2400	2.0
16.2450	2.2
16.2500	2.1
16.2550	2.1
16.2600	2.2
16.2650	2.1
16.2700	2.1
16.2750	2.1
16.2800	2.1
16.2850	2.0
16.2900	2.0
16.2950	2.0
16.3000	2.0
16.3050	2.0
16.3100	2.0
16.3150	2.1
16.3200	2.1
16.3250	2.1
16.3300	2.1
16.3350	2.1
16.3400	2.1
16.3450	2.2
16.3500	2.1
16.3550	2.1
16.3600	2.1
16.3650	2.0
16.3700	2.1
16.3750	2.1
16.3800	2.0
16.3850	2.1
16.3900	2.1
16.3950	2.0
16.4000	2.1
16.4050	2.1
16.4100	2.1
16.4150	2.1
16.4200	2.1
16.4250	2.1
16.4300	2.1
16.4350	2.1
16.4400	2.0
16.4450	2.1
16.4500	2.1
16.4550	2.0
16.4600	2.1
16.4650	2.1
16.4700	2.1
16.4750	2.1
16.4800	2.1
16.4850	2.1
16.4900	2.2
16.4950	2.1
16.5000	2.1
16.5050	2.1
16.5100	2.1
16.5150	2.1
16.5200	2.1
16.5250	2.0
16.5300	2.1
16.5350	2.1
16.5400	2.0
16.5450	2.1
16.5500	2.1
16.5550	2.1
16.5600	2.1
16.5650	2.1
16.5700	2.1
16.5750	2.2
16.5800	2.1
16.5850	2.1
16.5900	2.1
16.5950	2.1
16.6000	2.1
16.6050	2.1
16.6100	2.0
16.6150	2.1
16.6200	2.1
16.6250	2.1
16.6300	2.1
16.6350	2.1
16.6400	2.1
16.6450	2.1
16.6500	2.1
16.6550	2.1
16.6600	2.1
16.6650	2.1
16.6700	2.0
16.6750	2.1
16.6800	2.1
16.6850	2.0
16.6900	2.1
16.6950	2.1
16.7000	2.1
16.7050	2.1
16.7100	2.1
16.7150	2.1
16.7200	2.1
16.7250	2.1
16.7300	2.1
16.7350	2.1
16.7400	2.1
16.7450	2.1
16.7500	2.1
16.7550	2.0
16.7600	2.1
16.7650	2.1
16.7700	2.0
16.7750	2.1
16.7800	2.1
16.7850	2.0
16.7900	2.1
16.7950	2.1
16.8000	2.1
16.8050	2.1
16.8100	2.1
16.8150	2.1
16.8200	2.1
16.8250	2.1
16.8300	2.0
16.8350	2.1
16.8400	2.1
16.8450	2.1
16.8500	2.1
16.8550	2.1
16.8600	2.1
16.8650	2.1
16.8700	2.1
16.8750	2.1
16.8800	2.1
16.8850	2.1
16.8900	2.1
16.8950	2.1
16.9000	2.0
16.9050	2.1
16.9100	2.1
16.9150	2.0
16.9200	2.1
16.9250	2.1
16.9300	2.0
16.9350	2.1
16.9400	2.1
16.9450	2.1
16.9500	2.1
16.9550	2.1
16.9600	2.1
16.9650	2.1
16.9700	2.1
16.9750	2.1
16.9800	2.1
16.9850	2.0
16.9900	2.1
16.9950	2.1
17.0000	2.0
17.0050	2.1
17.0100	2.1
17.0150	2.0
17.0200	2.1
17.0250	2.1
17.0300	2.1
17.0350	2.1
17.0400	2.1
17.0450	2.0
17.0500	2.1
17.0550	2.1
17.0600	2.1
17.0650	2.1
17.0700	2.1
17.0750	2.1
17.0800	2.1
17.0850	2.1
17.0900	2.1
17.0950	2.1
17.1000	2.1
17.1050	2.1
17.1100	2.1
17.1150	2.0
17.1200	2.1
17.1250	2.1
17.1300	2.0
17.1350	2.1
17.1400	2.1
17.1450	2.0
17.1500	2.1
17.1550	2.1
17.1600	2.1
17.1650	2.1
17.1700	2.1
17.1750	2.1
17.1800	2.1
17.1850	2.1
17.1900	2.1
17.1950	2.1
17.2000	2.0
17.2050	2.1
17.2100	2.1
17.2150	2.1
17.2200	2.1
17.2250	2.1
17.2300	2.1
17.2350	2.1
17.2400	2.1
17.2450	2.1
17.2500	2.1
17.2550	2.1
17.2600	2.0
17.2650	2.1
17.2700	2.1
17.2750	2.0
17.2800	2.1
17.2850	2.1
17.2900	2.0
17.2950	2.1
17.3000	2.1
17.3050	2.1
17.3100	2.1
17.3150	2.1
17.3200	2.1
17.3250	2.1
17.3300	2.1
17.3350	2.1
17.3400	2.1
17.3450	2.0
17.3500	2.1
17.3550	2.1
17.3600	2.0
17.3650	2.1
17.3700	2.1
17.3750	2.0
17.3800	2.1
17.3850	2.1
17.3900	2.0
17.3950	2.1
17.4000	2.1
17.4050	2.0
17.4100	2.1
17.4150	2.1
17.4200	2.1
17.4250	2.1
17.4300	2.1
17.4350	2.1
17.4400	2.1
17.4450	2.0
17.4500	2.1
17.4550	2.1
17.4600	2.0
17.4650	2.1
17.4700	2.1
17.4750	2.0
17.4800	2.1
17.4850	2.1
17.4900	2.0
17.4950	2.1
17.5000	2.1
17.5050	2.0
17.5100	2.1
17.5150	2.1
17.5200	2.0
17.5250	2.1
17.5300	2.1
17.5350	2.1
17.5400	2.1
17.5450	2.1
17.5500	2.1
17.5550	2.1
17.5600	2.0
17.5650	2.1
17.5700	2.1
17.5750	2.0
17.5800	2.1
17.5850	2.1
17.5900	2.0
17.5950	2.1
17.6000	2.1
17.6050	2.0
17.6100	2.1
17.6150	2.1
17.6200	2.0
17.6250	2.1
17.6300	2.1
17.6350	2.0
17.6400	2.1
17.6450	2.1
17.6500	2.0
17.6550	2.1
17.6600	2.1
17.6650	2.1
17.6700	2.1
17.6750	2.1
17.6800	2.1
17.6850	2.1
17.6900	2.0
17.6950	2.1
17.7000	2.1
17.7050	2.0
17.7100	2.1
17.7150	2.1
17.7200	2.0
17.7250	2.1
17.7300	2.1
17.7350	2.0
17.7400	2.1
17.7450	2.1
17.7500	2.1
17.7550	2.1
17.7600	2.0
17.7650	2.1
17.7700	2.1
17.7750	2.1
17.7800	2.1
17.7850	2.1
17.7900	2.1
17.7950	2.1
17.8000	2.1
17.8050	2.0
17.8100	2.1
17.8150	2.1
17.8200	2.0
17.8250	2.1
17.8300	2.1
17.8350	2.0
17.8400	2.1
17.8450	2.1
17.8500	2.0
17.8550	2.1
17.8600	2.1
17.8650	2.1
17.8700	2.1
17.8750	2.1
17.8800	2.1
17.8850	2.1
17.8900	2.1
17.8950	2.1
17.9000	2.1
17.9050	2.1
17.9100	2.1
17.9150	2.1
17.9200	2.1
17.9250	2.1
17.9300	2.1
17.9350	2.1
17.9400	2.1
17.9450	2.1
17.9500	2.0
17.9550	2.1
17.9600	2.1
17.9650	2.0
17.9700	2.1
17.9750	2.1
17.9800	2.0
17.9850	2.1
17.9900	2.1
17.9950	2.1
18.0000	2.1
18.0050	2.1
18.0100	2.1
18.0150	2.1
18.0200	2.0
18.0250	2.1
18.0300	2.1
18.0350	2.0
18.0400	2.1
18.0450	2.1
18.0500	2.1
18.0550	2.1
18.0600	2.1
18.0650	2.0
18.0700	2.1
18.0750	2.1
18.0800	2.0
18.0850	2.1
18.0900	2.1
18.0950	2.1
18.1000	2.1
18.1050	2.1
18.1100	2.1
18.1150	2.1
18.1200	2.1
18.1250	2.1
18.1300	2.1
18.1350	2.1
18.1400	2.1
18.1450	2.1
18.1500	2.0
18.1550	2.1
18.1600	2.1
18.1650	2.0
18.1700	2.1
18.1750	2.1
18.1800	2.0
18.1850	2.1
18.1900	2.1
18.1950	2.1
18.2000	2.1
18.2050	2.1
18.2100	2.1
18.2150	2.1
18.2200	2.1
18.2250	2.1
18.2300	2.1
18.2350	2.1
18.2400	2.1
18.2450	2.1
18.2500	2.1
18.2550	2.1
18.2600	2.1
18.2650	2.0
18.2700	2.1
18.2750	2.1
18.2800	2.1
18.2850	2.1
18.2900	2.1
18.2950	2.1
18.3000	2.1
18.3050	2.1
18.3100	2.0
18.3150	2.1
18.3200	2.1
18.3250	2.0
18.3300	2.1
18.3350	2.1
18.3400	2.1
18.3450	2.1
18.3500	2.1
18.3550	2.1
18.3600	2.1
18.3650	2.1
18.3700	2.1
18.3750	2.1
18.3800	2.1
18.3850	2.1
18.3900	2.1
18.3950	2.0
18.4000	2.1
18.4050	2.1
18.4100	2.0
18.4150	2.1
18.4200	2.1
18.4250	2.1
18.4300	2.1
18.4350	2.1
18.4400	2.1
18.4450	2.1
18.4500	2.1
18.4550	2.1
18.4600	2.1
18.4650	2.1
18.4700	2.1
18.4750	2.1
18.4800	2.0
18.4850	2.1
18.4900	2.1
18.4950	2.0
18.5000	2.1
18.5050	2.1
18.5100	2.0
18.5150	2.1
18.5200	2.1
18.5250	2.1
18.5300	2.1
18.5350	2.1
18.5400	2.0
18.5450	2.1
18.5500	2.1
18.5550	2.0
18.5600	2.1
18.5650	2.1
18.5700	2.1
18.5750	2.1
18.5800	2.1
18.5850	2.1
18.5900	2.1
18.5950	2.0
18.6000	2.1
18.6050	2.1
18.6100	2.1
18.6150	2.1
18.6200	2.1
18.6250	2.1
18.6300	2.1
18.6350	2.1
18.6400	2.0
18.6450	2.1
18.6500	2.1
18.6550	2.0
18.6600	2.1
18.6650	2.1
18.6700	2.0
18.6750	2.1
18.6800	2.1
18.6850	2.0
18.6900	2.1
18.6950	2.1
18.7000	2.1
18.7050	2.1
18.7100	2.0
18.7150	2.1
18.7200	2.1
18.7250	2.1
18.7300	2.1
18.7350	2.1
18.7400	2.1
18.7450	2.1
18.7500	2.1
18.7550	2.0
18.7600	2.1
18.7650	2.1
18.7700	2.0
18.7750	2.1
18.7800	2.1
18.7850	2.0
18.7900	2.1
18.7950	2.1
18.8000	2.1
18.8050	2.1
18.8100	2.1
18.8150	2.1
18.8200	2.1
18.8250	2.1
18.8300	2.1
18.8350	2.1
18.8400	2.1
18.8450	2.1
18.8500	2.1
18.8550	2.0
18.8600	2.1
18.8650	2.1
18.8700	2.0
18.8750	2.1
18.8800	2.1
18.8850	2.0
18.8900	2.1
18.8950	2.1
18.9000	2.0
18.9050	2.1
18.9100	2.1
18.9150	2.1
18.9200	2.1
18.9250	2.1
18.9300	2.1
18.9350	2.1
18.9400	2.1
18.9450	2.1
18.9500	2.1
18.9550	2.0
18.9600	2.1
18.9650	2.1
18.9700	2.0
18.9750	2.1
18.9800	2.1
18.9850	2.0
18.9900	2.1
18.9950	2.1
19.0000	2.1
19.0050	2.1
19.0100	2.1
19.0150	2.1
19.0200	2.1
19.0250	2.1
19.0300	2.1
19.0350	2.1
19.0400	2.1
19.0450	2.1
19.0500	2.1
19.0550	2.1
19.0600	2.1
19.0650	2.1
19.0700	2.1
19.0750	2.1
19.0800	2.1
19.0850	2.0
19.0900	2.1
19.0950	2.1
19.1000	2.1
19.1050	2.1
19.1100	2.1
19.1150	2.0
19.1200	2.1
19.1250	2.1
19.1300	2.0
19.1350	2.1
19.1400	2.1
19.1450	2.0
19.1500	2.1
19.1550	2.1
19.1600	2.1
19.1650	2.1
19.1700	2.1
19.1750	2.1
19.1800	2.1
19.1850	2.1
19.1900	2.1
19.1950	2.1
19.2000	2.0
19.2050	2.1
19.2100	2.1
19.2150	2.0
19.2200	2.1
19.2250	2.1
19.2300	2.0
19.2350	2.1
19.2400	2.1
19.2450	2.1
19.2500	2.1
19.2550	2.1
19.2600	2.1
19.2650	2.1
19.2700	2.1
19.2750	2.1
19.2800	2.1
19.2850	2.1
19.2900	2.1
19.2950	2.1
19.3000	2.0
19.3050	2.1
19.3100	2.1
19.3150	2.0
19.3200	2.1
19.3250	2.1
19.3300	2.0
19.3350	2.1
19.3400	2.1
19.3450	2.0
19.3500	2.1
19.3550	2.1
19.3600	2.0
19.3650	2.1
19.3700	2.1
19.3750	2.0
19.3800	2.1
19.3850	2.1
19.3900	2.1
19.3950	2.1
19.4000	2.1
19.4050	2.1
19.4100	2.1
19.4150	2.1
19.4200	2.1
19.4250	2.1
19.4300	2.1
19.4350	2.1
19.4400	2.1
19.4450	2.0
19.4500	2.1
19.4550	2.1
19.4600	2.0
19.4650	2.1
19.4700	2.1
19.4750	2.0
19.4800	2.1
19.4850	2.1
19.4900	2.0
19.4950	2.1
19.5000	2.1
19.5050	2.1
19.5100	2.1
19.5150	2.1
19.5200	2.1
19.5250	2.1
19.5300	2.1
19.5350	2.1
19.5400	2.1
19.5450	2.1
19.5500	2.1
19.5550	2.1
19.5600	2.0
19.5650	2.1
19.5700	2.1
19.5750	2.0
19.5800	2.1
19.5850	2.1
19.5900	2.1
19.5950	2.1
19.6000	2.1
19.6050	2.0
19.6100	2.1
19.6150	2.1
19.6200	2.1
19.6250	2.1
19.6300	2.1
19.6350	2.1
19.6400	2.1
19.6450	2.1
19.6500	2.1
19.6550	2.1
19.6600	2.1
19.6650	2.1
19.6700	2.1
19.6750	2.1
19.6800	2.1
19.6850	2.1
19.6900	2.1
19.6950	2.1
19.7000	2.1
19.7050	2.1
19.7100	2.1
19.7150	2.1
19.7200	2.1
19.7250	2.1
19.7300	2.1
19.7350	2.1
19.7400	2.1
19.7450	2.1
19.7500	2.1
19.7550	2.1
19.7600	2.1
19.7650	2.1
19.7700	2.1
19.7750	2.1
19.7800	2.1
19.7850	2.1
19.7900	2.0
19.7950	2.1
19.8000	2.1
19.8050	2.1
19.8100	2.1
19.8150	2.1
19.8200	2.1
19.8250	2.1
19.8300	2.1
19.8350	2.0
19.8400	2.1
19.8450	2.1
19.8500	2.0
19.8550	2.1
19.8600	2.1
19.8650	2.1
19.8700	2.1
19.8750	2.1
19.8800	2.1
19.8850	2.1
19.8900	2.1
19.8950	2.1
19.9000	2.1
19.9050	2.0
19.9100	2.1
19.9150	2.1
19.9200	2.0
19.9250	2.1
19.9300	2.1
19.9350	2.1
19.9400	2.1
19.9450	2.1
19.9500	2.1
19.9550	2.1
19.9600	2.1
19.9650	2.1
19.9700	2.1
19.9750	2.1
19.9800	2.1
19.9850	2.2
19.9900	2.1
19.9950	2.1
20.0000	2.1
20.0050	2.1
20.0100	2.1
20.0150	2.1
20.0200	2.0
20.0250	2.1
20.0300	2.1
20.0350	2.0
20.0400	2.1
20.0450	2.1
20.0500	2.1
20.0550	2.1
20.0600	2.1
20.0650	2.1
20.0700	2.1
20.0750	2.1
20.0800	2.1
20.0850	2.1
20.0900	2.1
20.0950	2.1
20.1000	2.1
20.1050	2.1
20.1100	2.1
20.1150	2.1
20.1200	2.1
20.1250	2.1
20.1300	2.2
20.1350	2.1
20.1400	2.1
20.1450	2.1
20.1500	2.0
20.1550	2.1
20.1600	2.1
20.1650	2.0
20.1700	2.1
20.1750	2.1
20.1800	2.0
20.1850	2.1
20.1900	2.1
20.1950	2.1
20.2000	2.1
20.2050	2.1
20.2100	2.1
20.2150	2.1
20.2200	2.1
20.2250	2.1
20.2300	2.1
20.2350	2.1
20.2400	2.1
20.2450	2.1
20.2500	2.1
20.2550	2.1
20.2600	2.1
20.2650	2.1
20.2700	2.1
20.2750	2.1
20.2800	2.1
20.2850	2.1
20.2900	2.1
20.2950	2.1
20.3000	2.1
20.3050	2.1
20.3100	2.1
20.3150	2.1
20.3200	2.1
20.3250	2.1
20.3300	2.1
20.3350	2.1
20.3400	2.1
20.3450	2.1
20.3500	2.1
20.3550	2.1
20.3600	2.1
20.3650	2.1
20.3700	2.1
20.3750	2.1
20.3800	2.1
20.3850	2.1
20.3900	2.1
20.3950	2.1
20.4000	2.1
20.4050	2.1
20.4100	2.1
20.4150	2.1
20.4200	2.1
20.4250	2.1
20.4300	2.1
20.4350	2.1
20.4400	2.1
20.4450	2.1
20.4500	2.1
20.4550	2.1
20.4600	2.1
20.4650	2.1
20.4700	2.1
20.4750	2.1
20.4800	2.1
20.4850	2.1
20.4900	2.1
20.4950	2.1
20.5000	2.1
20.5050	2.2
20.5100	2.1
20.5150	2.1
20.5200	2.1
20.5250	2.1
20.5300	2.1
20.5350	2.1
20.5400	2.1
20.5450	2.1
20.5500	2.1
20.5550	2.1
20.5600	2.1
20.5650	2.1
20.5700	2.1
20.5750	2.1
20.5800	2.1
20.5850	2.1
20.5900	2.1
20.5950	2.1
20.6000	2.1
20.6050	2.1
20.6100	2.1
20.6150	2.1
20.6200	2.1
20.6250	2.1
20.6300	2.1
20.6350	2.1
20.6400	2.1
20.6450	2.1
20.6500	2.1
20.6550	2.1
20.6600	2.1
20.6650	2.1
20.6700	2.1
20.6750	2.1
20.6800	2.1
20.6850	2.1
20.6900	2.1
20.6950	2.1
20.7000	2.1
20.7050	2.1
20.7100	2.1
20.7150	2.1
20.7200	2.1
20.7250	2.1
20.7300	2.1
20.7350	2.1
20.7400	2.1
20.7450	2.1
20.7500	2.1
20.7550	2.1
20.7600	2.1
20.7650	2.1
20.7700	2.1
20.7750	2.1
20.7800	2.1
20.7850	2.0
20.7900	2.1
20.7950	2.1
20.8000	2.0
20.8050	2.1
20.8100	2.1
20.8150	2.1
20.8200	2.2
20.8250	2.1
20.8300	2.1
20.8350	2.1
20.8400	2.1
20.8450	2.1
20.8500	2.1
20.8550	2.1
20.8600	2.1
20.8650	2.1
20.8700	2.1
20.8750	2.1
20.8800	2.1
20.8850	2.1
20.8900	2.1
20.8950	2.1
20.9000	2.1
20.9050	2.1
20.9100	2.1
20.9150	2.1
20.9200	2.1
20.9250	2.0
20.9300	1.9
20.9350	1.9
20.9400	1.7
20.9450	1.6
20.9500	1.6
20.9550	1.5
20.9600	1.4
20.9650	1.4
20.9700	1.5
20.9750	1.3
20.9800	1.4
20.9850	1.5
20.9900	1.4
20.9950	1.4
21.0000	1.4
21.0050	1.3
21.0100	1.2
21.0150	1.2
21.0200	1.2
21.0250	1.1
21.0300	1.0
21.0350	1.0
21.0400	1.1
21.0450	1.0
21.0500	0.9
21.0550	1.0
21.0600	1.1
21.0650	1.0
21.0700	0.9
21.0750	1.0
21.0800	1.1
21.0850	0.9
21.0900	0.9
21.0950	0.9
21.1000	0.9
21.1050	0.9
21.1100	0.7
21.1150	0.7
21.1200	0.8
21.1250	0.8
21.1300	0.7
21.1350	0.6
21.1400	0.8
21.1450	0.9
21.1500	0.8
21.1550	0.7
21.1600	0.7
21.1650	0.8
21.1700	0.8
21.1750	0.6
21.1800	0.6
21.1850	0.7
21.1900	0.6
21.1950	0.6
21.2000	0.6
21.2050	0.6
21.2100	0.5
21.2150	0.5
21.2200	0.7
21.2250	0.6
21.2300	0.6
21.2350	0.5
21.2400	0.6
21.2450	0.6
21.2500	0.5
21.2550	0.5
21.2600	0.5
21.2650	0.5
21.2700	0.5
21.2750	0.5
21.2800	0.4
21.2850	0.4
21.2900	0.5
21.2950	0.4
21.3000	0.5
21.3050	0.5
21.3100	0.5
21.3150	0.4
21.3200	0.5
21.3250	0.5
21.3300	0.5
21.3350	0.4
21.3400	0.4
21.3450	0.4
21.3500	0.4
21.3550	0.4
21.3600	0.4
21.3650	0.4
21.3700	0.4
21.3750	0.3
21.3800	0.4
21.3850	0.4
21.3900	0.4
21.3950	0.4
21.4000	0.4
21.4050	0.4
21.4100	0.4
21.4150	0.3
21.4200	0.3
21.4250	0.4
21.4300	0.3
21.4350	0.3
21.4400	0.3
21.4450	0.3
21.4500	0.3
21.4550	0.3
21.4600	0.3
21.4650	0.4
21.4700	0.4
21.4750	0.3
21.4800	0.3
21.4850	0.3
21.4900	0.3
21.4950	0.3
21.5000	0.3
21.5050	0.3
21.5100	0.3
21.5150	0.3
21.5200	0.3
21.5250	0.3
21.5300	0.2
21.5350	0.3
21.5400	0.3
21.5450	0.3
21.5500	0.3
21.5550	0.3
21.5600	0.3
21.5650	0.3
21.5700	0.3
21.5750	0.3
21.5800	0.3
21.5850	0.3
21.5900	0.3
21.5950	0.3
21.6000	0.3
21.6050	0.3
21.6100	0.2
21.6150	0.2
21.6200	0.2
21.6250	0.3
21.6300	0.3
21.6350	0.3
21.6400	0.3
21.6450	0.3
21.6500	0.3
21.6550	0.2
21.6600	0.2
21.6650	0.2
21.6700	0.2
21.6750	0.2
21.6800	0.2
21.6850	0.2
21.6900	0.2
21.6950	0.2
21.7000	0.2
21.7050	0.2
21.7100	0.2
21.7150	0.2
21.7200	0.2
21.7250	0.2
21.7300	0.2
21.7350	0.2
21.7400	0.2
21.7450	0.2
21.7500	0.2
21.7550	0.2
21.7600	0.2
21.7650	0.2
21.7700	0.2
21.7750	0.2
21.7800	0.2
21.7850	0.2
21.7900	0.2
21.7950	0.2
21.8000	0.2
21.8050	0.2
21.8100	0.2
21.8150	0.2
21.8200	0.2
21.8250	0.2
21.8300	0.2
21.8350	0.2
21.8400	0.2
21.8450	0.2
21.8500	0.2
21.8550	0.2
21.8600	0.2
21.8650	0.2
21.8700	0.2
21.8750	0.2
21.8800	0.2
21.8850	0.2
21.8900	0.2
21.8950	0.2
21.9000	0.2
21.9050	0.2
21.9100	0.2
21.9150	0.2
21.9200	0.2
21.9250	0.2
21.9300	0.2
21.9350	0.2
21.9400	0.2
21.9450	0.2
21.9500	0.2
21.9550	0.2
21.9600	0.2
21.9650	0.2
21.9700	0.2
21.9750	0.2
21.9800	0.2
21.9850	0.2
21.9900	0.2
21.9950	0.2
22.0000	0.2
22.0050	0.2
22.0100	0.2
22.0150	0.2
22.0200	0.2
22.0250	0.2
22.0300	0.2
22.0350	0.2
22.0400	0.2
22.0450	0.2
22.0500	0.2
22.0550	0.2
22.0600	0.2
22.0650	0.2
22.0700	0.2
22.0750	0.2
22.0800	0.2
22.0850	0.2
22.0900	0.2
22.0950	0.2
22.1000	0.2
22.1050	0.2
22.1100	0.2
22.1150	0.2
22.1200	0.2
22.1250	0.2
22.1300	0.2
22.1350	0.2
22.1400	0.2
22.1450	0.2
22.1500	0.2
22.1550	0.2
22.1600	0.2
22.1650	0.2
22.1700	0.2
22.1750	0.2
22.1800	0.2
22.1850	0.2
22.1900	0.2
22.1950	0.2
22.2000	0.2
22.2050	0.2
22.2100	0.2
22.2150	0.2
22.2200	0.2
22.2250	0.2
22.2300	0.2
22.2350	0.2
22.2400	0.2
22.2450	0.2
22.2500	0.2
22.2550	0.2
22.2600	0.2
22.2650	0.2
22.2700	0.2
22.2750	0.2
22.2800	0.2
22.2850	0.2
22.2900	0.2
22.2950	0.2
22.3000	0.2
22.3050	0.2
22.3100	0.2
22.3150	0.2
22.3200	0.2
22.3250	0.2
22.3300	0.2
22.3350	0.2
22.3400	0.2
22.3450	0.2
22.3500	0.2
22.3550	0.2
22.3600	0.2
22.3650	0.2
22.3700	0.2
22.3750	0.2
22.3800	0.2
22.3850	0.2
22.3900	0.2
22.3950	0.2
22.4000	0.2
22.4050	0.2
22.4100	0.2
22.4150	0.2
22.4200	0.2
22.4250	0.2
22.4300	0.2
22.4350	0.2
22.4400	0.2
22.4450	0.2
22.4500	0.2
22.4550	0.2
22.4600	0.2
22.4650	0.2
22.4700	0.2
22.4750	0.2
22.4800	0.2
22.4850	0.2
22.4900	0.2
22.4950	0.2
22.5000	0.2
22.5050	0.2
22.5100	0.2
22.5150	0.2
22.5200	0.2
22.5250	0.2
22.5300	0.2
22.5350	0.2
22.5400	0.2
22.5450	0.2
22.5500	0.2
22.5550	0.2
22.5600	0.2
22.5650	0.2
22.5700	0.2
22.5750	0.2
22.5800	0.2
22.5850	0.2
22.5900	0.2
22.5950	0.2
22.6000	0.2
22.6050	0.2
22.6100	0.2
22.6150	0.2
22.6200	0.2
22.6250	0.2
22.6300	0.2
22.6350	0.2
22.6400	0.2
22.6450	0.2
22.6500	0.2
22.6550	0.2
22.6600	0.2
22.6650	0.2
22.6700	0.2
22.6750	0.2
22.6800	0.2
22.6850	0.2
22.6900	0.2
22.6950	0.2
22.7000	0.2
22.7050	0.2
22.7100	0.2
22.7150	0.2
22.7200	0.2
22.7250	0.2
22.7300	0.2
22.7350	0.2
22.7400	0.2
22.7450	0.2
22.7500	0.2
22.7550	0.2
22.7600	0.2
22.7650	0.2
22.7700	0.2
22.7750	0.2
22.7800	0.2
22.7850	0.2
22.7900	0.2
22.7950	0.2
22.8000	0.2
22.8050	0.2
22.8100	0.2
22.8150	0.2
22.8200	0.2
22.8250	0.2
22.8300	0.2
22.8350	0.2
22.8400	0.2
22.8450	0.2
22.8500	0.2
22.8550	0.2
22.8600	0.2
22.8650	0.2
22.8700	0.2
22.8750	0.2
22.8800	0.2
22.8850	0.2
22.8900	0.2
22.8950	0.2
22.9000	0.2
22.9050	0.2
22.9100	0.2
22.9150	0.2
22.9200	0.2
22.9250	0.2
22.9300	0.2
22.9350	0.2
22.9400	0.2
22.9450	0.2
22.9500	0.2
22.9550	0.2
22.9600	0.2
22.9650	0.2
22.9700	0.2
22.9750	0.2
22.9800	0.2
22.9850	0.2
22.9900	0.2
22.9950	0.2
23.0000	0.2
23.0050	0.2
23.0100	0.2
23.0150	0.2
23.0200	0.2
23.0250	0.2
23.0300	0.2
23.0350	0.2
23.0400	0.2
23.0450	0.2
23.0500	0.2
23.0550	0.2
23.0600	0.2
23.0650	0.2
23.0700	0.2
23.0750	0.2
23.0800	0.2
23.0850	0.2
23.0900	0.2
23.0950	0.2
23.1000	0.2
23.1050	0.2
23.1100	0.2
23.1150	0.2
23.1200	0.2
23.1250	0.2
23.1300	0.2
23.1350	0.2
23.1400	0.2
23.1450	0.2
23.1500	0.2
23.1550	0.2
23.1600	0.2
23.1650	0.2
23.1700	0.2
23.1750	0.2
23.1800	0.2
23.1850	0.2
23.1900	0.2
23.1950	0.2
23.2000	0.2
23.2050	0.2
23.2100	0.2
23.2150	0.2
23.2200	0.2
23.2250	0.2
23.2300	0.2
23.2350	0.2
23.2400	0.2
23.2450	0.2
23.2500	0.2
23.2550	0.2
23.2600	0.2
23.2650	0.2
23.2700	0.2
23.2750	0.2
23.2800	0.2
23.2850	0.2
23.2900	0.2
23.2950	0.2
23.3000	0.2
23.3050	0.2
23.3100	0.2
23.3150	0.2
23.3200	0.2
23.3250	0.2
23.3300	0.2
23.3350	0.2
23.3400	0.2
23.3450	0.2
23.3500	0.2
23.3550	0.2
23.3600	0.2
23.3650	0.2
23.3700	0.2
23.3750	0.2
23.3800	0.2
23.3850	0.2
23.3900	0.2
23.3950	0.2
23.4000	0.2
23.4050	0.2
23.4100	0.2
23.4150	0.2
23.4200	0.2
23.4250	0.2
23.4300	0.2
23.4350	0.2
23.4400	0.2
23.4450	0.2
23.4500	0.2
23.4550	0.2
23.4600	0.2
23.4650	0.2
23.4700	0.2
23.4750	0.2
23.4800	0.2
23.4850	0.2
23.4900	0.2
23.4950	0.2
23.5000	0.2
23.5050	0.2
23.5100	0.2
23.5150	0.2
23.5200	0.2
23.5250	0.2
23.5300	0.2
23.5350	0.2
23.5400	0.2
23.5450	0.2
23.5500	0.2
23.5550	0.2
23.5600	0.2
23.5650	0.2
23.5700	0.2
23.5750	0.2
23.5800	0.2
23.5850	0.2
23.5900	0.2
23.5950	0.2
23.6000	0.2
23.6050	0.2
23.6100	0.2
23.6150	0.2
23.6200	0.2
23.6250	0.2
23.6300	0.2
23.6350	0.2
23.6400	0.2
23.6450	0.2
23.6500	0.2
23.6550	0.2
23.6600	0.2
23.6650	0.2
23.6700	0.2
23.6750	0.2
23.6800	0.2
23.6850	0.2
23.6900	0.2
23.6950	0.2
23.7000	0.2
23.7050	0.2
23.7100	0.2
23.7150	0.2
23.7200	0.2
23.7250	0.2
23.7300	0.2
23.7350	0.2
23.7400	0.2
23.7450	0.2
23.7500	0.2
23.7550	0.2
23.7600	0.2
23.7650	0.2
23.7700	0.2
23.7750	0.2
23.7800	0.2
23.7850	0.2
23.7900	0.2
23.7950	0.2
23.8000	0.2
23.8050	0.2
23.8100	0.2
23.8150	0.2
23.8200	0.2
23.8250	0.2
23.8300	0.2
23.8350	0.2
23.8400	0.2
23.8450	0.2
23.8500	0.2
23.8550	0.2
23.8600	0.2
23.8650	0.2
23.8700	0.2
23.8750	0.2
23.8800	0.2
23.8850	0.2
23.8900	0.2
23.8950	0.2
23.9000	0.2
23.9050	0.2
23.9100	0.2
23.9150	0.2
23.9200	0.2
23.9250	0.2
23.9300	0.2
23.9350	0.2
23.9400	0.2
23.9450	0.2
23.9500	0.2
23.9550	0.2
23.9600	0.2
23.9650	0.2
23.9700	0.2
23.9750	0.2
23.9800	0.2
23.9850	0.2
23.9900	0.2
23.9950	0.2
24.0000	0.2
24.0050	0.2
24.0100	0.2
24.0150	0.2
24.0200	0.2
24.0250	0.2
24.0300	0.2
24.0350	0.2
24.0400	0.2
24.0450	0.2
24.0500	0.2
24.0550	0.2
24.0600	0.2
24.0650	0.2
24.0700	0.2
24.0750	0.2
24.0800	0.2
24.0850	0.2
24.0900	0.2
24.0950	0.2
24.1000	0.2
24.1050	0.2
24.1100	0.2
24.1150	0.2
24.1200	0.2
24.1250	0.2
24.1300	0.2
24.1350	0.2
24.1400	0.2
24.1450	0.2
24.1500	0.2
24.1550	0.2
24.1600	0.2
24.1650	0.2
24.1700	0.2
24.1750	0.2
24.1800	0.2
24.1850	0.2
24.1900	0.2
24.1950	0.2
24.2000	0.2
24.2050	0.2
24.2100	0.2
24.2150	0.2
24.2200	0.2
24.2250	0.2
24.2300	0.2
24.2350	0.2
24.2400	0.2
24.2450	0.2
24.2500	0.2
24.2550	0.2
24.2600	0.2
24.2650	0.2
24.2700	0.2
24.2750	0.2
24.2800	0.2
24.2850	0.2
24.2900	0.2
24.2950	0.2
24.3000	0.2
24.3050	0.2
24.3100	0.2
24.3150	0.2
24.3200	0.2
24.3250	0.2
24.3300	0.2
24.3350	0.2
24.3400	0.2
24.3450	0.2
24.3500	0.2
24.3550	0.2
24.3600	0.2
24.3650	0.2
24.3700	0.2
24.3750	0.2
24.3800	0.2
24.3850	0.2
24.3900	0.2
24.3950	0.2
24.4000	0.2
24.4050	0.2
24.4100	0.2
24.4150	0.2
24.4200	0.2
24.4250	0.2
24.4300	0.2
24.4350	0.2
24.4400	0.2
24.4450	0.2
24.4500	0.2
24.4550	0.2
24.4600	0.2
24.4650	0.2
24.4700	0.2
24.4750	0.2
24.4800	0.2
24.4850	0.2
24.4900	0.2
24.4950	0.2
24.5000	0.2
24.5050	0.2
24.5100	0.2
24.5150	0.2
24.5200	0.2
24.5250	0.2
24.5300	0.2
24.5350	0.2
24.5400	0.2
24.5450	0.2
24.5500	0.2
24.5550	0.2
24.5600	0.2
24.5650	0.2
24.5700	0.2
24.5750	0.2
24.5800	0.2
24.5850	0.2
24.5900	0.2
24.5950	0.2
24.6000	0.2
24.6050	0.2
24.6100	0.2
24.6150	0.2
24.6200	0.2
24.6250	0.2
24.6300	0.2
24.6350	0.2
24.6400	0.2
24.6450	0.2
24.6500	0.2
24.6550	0.2
24.6600	0.2
24.6650	0.2
24.6700	0.2
24.6750	0.2
24.6800	0.2
24.6850	0.2
24.6900	0.2
24.6950	0.2
24.7000	0.2
24.7050	0.2
24.7100	0.2
24.7150	0.2
24.7200	0.2
24.7250	0.2
24.7300	0.2
24.7350	0.2
24.7400	0.2
24.7450	0.2
24.7500	0.2
24.7550	0.2
24.7600	0.2
24.7650	0.2
24.7700	0.2
24.7750	0.2
24.7800	0.2
24.7850	0.2
24.7900	0.2
24.7950	0.2
24.8000	0.2
24.8050	0.2
24.8100	0.2
24.8150	0.2
24.8200	0.2
24.8250	0.2
24.8300	0.2
24.8350	0.2
24.8400	0.2
24.8450	0.2
24.8500	0.2
24.8550	0.2
24.8600	0.2
24.8650	0.2
24.8700	0.2
24.8750	0.2
24.8800	0.2
24.8850	0.2
24.8900	0.2
24.8950	0.2
24.9000	0.2
24.9050	0.2
24.9100	0.2
24.9150	0.2
24.9200	0.2
24.9250	0.2
24.9300	0.2
24.9350	0.2
24.9400	0.2
24.9450	0.2
24.9500	0.2
24.9550	0.2
24.9600	0.2
24.9650	0.2
24.9700	0.2
24.9750	0.2
24.9800	0.2
24.9850	0.2
24.9900	0.2
24.9950	0.2
25.0000	0.2
25.0050	0.2
25.0100	0.2
25.0150	0.2
25.0200	0.2
25.0250	0.2
25.0300	0.2
25.0350	0.2
25.0400	0.2
25.0450	0.2
25.0500	0.2
25.0550	0.2
25.0600	0.2
25.0650	0.2
25.0700	0.2
25.0750	0.2
25.0800	0.2
25.0850	0.2
25.0900	0.2
25.0950	0.2
25.1000	0.2
25.1050	0.2
25.1100	0.2
25.1150	0.2
25.1200	0.2
25.1250	0.2
25.1300	0.2
25.1350	0.2
25.1400	0.2
25.1450	0.2
25.1500	0.2
25.1550	0.2
25.1600	0.2
25.1650	0.2
25.1700	0.2
25.1750	0.2
25.1800	0.2
25.1850	0.2
25.1900	0.2
25.1950	0.2
25.2000	0.2
25.2050	0.2
25.2100	0.2
25.2150	0.2
25.2200	0.2
25.2250	0.2
25.2300	0.2
25.2350	0.2
25.2400	0.2
25.2450	0.2
25.2500	0.2
25.2550	0.2
25.2600	0.2
25.2650	0.2
25.2700	0.2
25.2750	0.2
25.2800	0.2
25.2850	0.2
25.2900	0.2
25.2950	0.2
25.3000	0.2
25.3050	0.2
25.3100	0.2
25.3150	0.2
25.3200	0.2
25.3250	0.2
25.3300	0.2
25.3350	0.2
25.3400	0.2
25.3450	0.2
25.3500	0.2
25.3550	0.2
25.3600	0.2
25.3650	0.2
25.3700	0.2
25.3750	0.2
25.3800	0.2
25.3850	0.2
25.3900	0.2
25.3950	0.2
25.4000	0.2
25.4050	0.2
25.4100	0.2
25.4150	0.2
25.4200	0.2
25.4250	0.2
25.4300	0.2
25.4350	0.2
25.4400	0.2
25.4450	0.2
25.4500	0.2
25.4550	0.2
25.4600	0.2
25.4650	0.2
25.4700	0.2
25.4750	0.2
25.4800	0.2
25.4850	0.2
25.4900	0.2
25.4950	0.2
25.5000	0.2
25.5050	0.2
25.5100	0.2
25.5150	0.2
25.5200	0.2
25.5250	0.2
25.5300	0.2
25.5350	0.2
25.5400	0.2
25.5450	0.2
25.5500	0.2
25.5550	0.2
25.5600	0.2
25.5650	0.2
25.5700	0.2
25.5750	0.2
25.5800	0.2
25.5850	0.2
25.5900	0.2
25.5950	0.2
25.6000	0.2
25.6050	0.2
25.6100	0.2
25.6150	0.2
25.6200	0.2
25.6250	0.2
25.6300	0.2
25.6350	0.2
25.6400	0.2
25.6450	0.2
25.6500	0.2
25.6550	0.2
25.6600	0.2
25.6650	0.2
25.6700	0.2
25.6750	0.2
25.6800	0.2
25.6850	0.2
25.6900	0.2
25.6950	0.2
25.7000	0.2
25.7050	0.2
25.7100	0.2
25.7150	0.2
25.7200	0.2
25.7250	0.2
25.7300	0.2
25.7350	0.2
25.7400	0.2
25.7450	0.2
25.7500	0.2
25.7550	0.2
25.7600	0.2
25.7650	0.2
25.7700	0.2
25.7750	0.2
25.7800	0.2
25.7850	0.2
25.7900	0.2
25.7950	0.2
25.8000	0.2
25.8050	0.2
25.8100	0.2
25.8150	0.2
25.8200	0.2
25.8250	0.2
25.8300	0.2
25.8350	0.2
25.8400	0.2
25.8450	0.2
25.8500	0.2
25.8550	0.2
25.8600	0.2
25.8650	0.2
25.8700	0.2
25.8750	0.2
25.8800	0.2
25.8850	0.2
25.8900	0.2
25.8950	0.2
25.9000	0.2
25.9050	0.2
25.9100	0.2
25.9150	0.2
25.9200	0.2
25.9250	0.2
25.9300	0.2
25.9350	0.2
25.9400	0.2
25.9450	0.2
25.9500	0.2
25.9550	0.2
25.9600	0.2
25.9650	0.2
25.9700	0.2
25.9750	0.2
25.9800	0.2
25.9850	0.2
25.9900	0.2
25.9950	0.2
26.0000	0.2
26.0050	0.2
26.0100	0.2
26.0150	0.2
26.0200	0.2
26.0250	0.2
26.0300	0.2
26.0350	0.2
26.0400	0.2
26.0450	0.2
26.0500	0.2
26.0550	0.2
26.0600	0.2
26.0650	0.2
26.0700	0.2
26.0750	0.2
26.0800	0.2
26.0850	0.2
26.0900	0.2
26.0950	0.2
26.1000	0.2
26.1050	0.2
26.1100	0.2
26.1150	0.2
26.1200	0.2
26.1250	0.2
26.1300	0.2
26.1350	0.2
26.1400	0.2
26.1450	0.2
26.1500	0.2
26.1550	0.2
26.1600	0.2
26.1650	0.2
26.1700	0.2
26.1750	0.2
26.1800	0.2
26.1850	0.2
26.1900	0.2
26.1950	0.2
26.2000	0.2
26.2050	0.2
26.2100	0.2
26.2150	0.2
26.2200	0.2
26.2250	0.2
26.2300	0.2
26.2350	0.2
26.2400	0.2
26.2450	0.2
26.2500	0.2
26.2550	0.2
26.2600	0.2
26.2650	0.2
26.2700	0.2
26.2750	0.2
26.2800	0.2
26.2850	0.2
26.2900	0.2
26.2950	0.2
26.3000	0.2
26.3050	0.2
26.3100	0.2
26.3150	0.2
26.3200	0.2
26.3250	0.2
26.3300	0.2
26.3350	0.2
26.3400	0.2
26.3450	0.2
26.3500	0.2
26.3550	0.2
26.3600	0.2
26.3650	0.2
26.3700	0.2
26.3750	0.2
26.3800	0.2
26.3850	0.2
26.3900	0.2
26.3950	0.2
26.4000	0.2
26.4050	0.2
26.4100	0.2
26.4150	0.2
26.4200	0.2
26.4250	0.2
26.4300	0.2
26.4350	0.2
26.4400	0.2
26.4450	0.2
26.4500	0.2
26.4550	0.2
26.4600	0.2
26.4650	0.2
26.4700	0.2
26.4750	0.2
26.4800	0.2
26.4850	0.2
26.4900	0.2
26.4950	0.2
26.5000	0.2
26.5050	0.2
26.5100	0.2
26.5150	0.2
26.5200	0.2
26.5250	0.2
26.5300	0.2
26.5350	0.2
26.5400	0.2
26.5450	0.2
26.5500	0.2
26.5550	0.2
26.5600	0.2
26.5650	0.2
26.5700	0.2
26.5750	0.2
26.5800	0.2
26.5850	0.2
26.5900	0.2
26.5950	0.2
26.6000	0.2
26.6050	0.2
26.6100	0.2
26.6150	0.2
26.6200	0.2
26.6250	0.2
26.6300	0.2
26.6350	0.2
26.6400	0.2
26.6450	0.2
26.6500	0.2
26.6550	0.2
26.6600	0.2
26.6650	0.2
26.6700	0.2
26.6750	0.2
26.6800	0.2
26.6850	0.2
26.6900	0.2
26.6950	0.2
26.7000	0.2
26.7050	0.2
26.7100	0.2
26.7150	0.2
26.7200	0.2
26.7250	0.2
26.7300	0.2
26.7350	0.2
26.7400	0.2
26.7450	0.2
26.7500	0.2
26.7550	0.2
26.7600	0.2
26.7650	0.2
26.7700	0.2
26.7750	0.2
26.7800	0.2
26.7850	0.2
26.7900	0.2
26.7950	0.2
26.8000	0.2
26.8050	0.2
26.8100	0.2
26.8150	0.2
26.8200	0.2
26.8250	0.2
26.8300	0.2
26.8350	0.2
26.8400	0.2
26.8450	0.2
26.8500	0.2
26.8550	0.2
26.8600	0.2
26.8650	0.2
26.8700	0.2
26.8750	0.4
26.8800	0.6
26.8850	0.7
26.8900	0.7
26.8950	0.7
26.9000	0.6
26.9050	0.6
26.9100	0.6
26.9150	0.5
26.9200	0.5
26.9250	0.5
26.9300	0.5
26.9350	0.5
26.9400	0.5
26.9450	0.6
26.9500	0.8
26.9550	1.0
26.9600	1.1
26.9650	1.3
26.9700	1.4
26.9750	1.5
26.9800	1.4
26.9850	1.3
26.9900	1.3
26.9950	1.4
27.0000	1.3
27.0050	1.1
27.0100	1.2
27.0150	1.3
27.0200	1.3
27.0250	1.2
27.0300	1.4
27.0350	1.5
27.0400	1.6
27.0450	1.7
27.0500	1.8
27.0550	1.8
27.0600	1.8
27.0650	1.8
27.0700	1.7
27.0750	1.6
27.0800	1.7
27.0850	1.6
27.0900	1.5
27.0950	1.6
27.1000	1.7
27.1050	1.6
27.1100	1.7
27.1150	1.9
27.1200	1.9
27.1250	1.9
27.1300	2.0
27.1350	2.0
27.1400	2.1
27.1450	1.9
27.1500	1.8
27.1550	2.0
27.1600	1.9
27.1650	1.7
27.1700	1.8
27.1750	1.9
27.1800	1.8
27.1850	1.9
27.1900	2.0
27.1950	2.0
27.2000	2.0
27.2050	2.1
27.2100	2.0
27.2150	2.1
27.2200	2.1
27.2250	2.0
27.2300	2.0
27.2350	2.1
27.2400	1.9
27.2450	1.9
27.2500	2.0
27.2550	1.9
27.2600	2.0
27.2650	2.1
27.2700	2.0
27.2750	2.1
27.2800	2.2
27.2850	2.1
27.2900	2.1
27.2950	2.2
27.3000	2.0
27.3050	2.0
27.3100	2.1
27.3150	2.0
27.3200	2.0
27.3250	2.0
27.3300	1.9
27.3350	2.0
27.3400	2.1
27.3450	2.0
27.3500	2.1
27.3550	2.2
27.3600	2.1
27.3650	2.1
27.3700	2.1
27.3750	2.1
27.3800	2.1
27.3850	2.0
27.3900	2.0
27.3950	2.0
27.4000	2.0
27.4050	2.0
27.4100	2.0
27.4150	2.0
27.4200	2.1
27.4250	2.1
27.4300	2.1
27.4350	2.1
27.4400	2.1
27.4450	2.1
27.4500	2.1
27.4550	2.1
27.4600	2.0
27.4650	2.1
27.4700	2.1
27.4750	2.0
27.4800	2.1
27.4850	2.0
27.4900	2.0
27.4950	2.1
27.5000	2.1
27.5050	2.0
27.5100	2.1
27.5150	2.1
27.5200	2.1
27.5250	2.2
27.5300	2.1
27.5350	2.1
27.5400	2.1
27.5450	2.0
27.5500	2.0
27.5550	2.1
27.5600	2.0
27.5650	2.0
27.5700	2.1
27.5750	2.0
27.5800	2.1
27.5850	2.1
27.5900	2.1
27.5950	2.1
27.6000	2.1
27.6050	2.1
27.6100	2.1
27.6150	2.1
27.6200	2.0
27.6250	2.1
27.6300	2.1
27.6350	2.0
27.6400	2.1
27.6450	2.1
27.6500	2.1
27.6550	2.1
27.6600	2.1
27.6650	2.1
27.6700	2.1
27.6750	2.1
27.6800	2.1
27.6850	2.1
27.6900	2.0
27.6950	2.1
27.7000	2.1
27.7050	2.0
27.7100	2.1
27.7150	2.1
27.7200	2.0
27.7250	2.1
27.7300	2.1
27.7350	2.1
27.7400	2.1
27.7450	2.1
27.7500	2.1
27.7550	2.1
27.7600	2.1
27.7650	2.0
27.7700	2.1
27.7750	2.0
27.7800	2.0
27.7850	2.1
27.7900	2.0
27.7950	2.1
27.8000	2.1
27.8050	2.1
27.8100	2.1
27.8150	2.1
27.8200	2.1
27.8250	2.1
27.8300	2.1
27.8350	2.0
27.8400	2.1
27.8450	2.1
27.8500	2.0
27.8550	2.1
27.8600	2.1
27.8650	2.0
27.8700	2.1
27.8750	2.1
27.8800	2.1
27.8850	2.1
27.8900	2.1
27.8950	2.1
27.9000	2.1
27.9050	2.1
27.9100	2.1
27.9150	2.1
27.9200	2.1
27.9250	2.1
27.9300	2.1
27.9350	2.0
27.9400	2.1
27.9450	2.1
27.9500	2.0
27.9550	2.1
27.9600	2.1
27.9650	2.0
27.9700	2.1
27.9750	2.1
27.9800	2.0
27.9850	2.1
27.9900	2.1
27.9950	2.0
28.0000	2.1
28.0050	2.1
28.0100	2.0
28.0150	2.1
28.0200	2.0
28.0250	2.1
28.0300	2.1
28.0350	2.0
28.0400	2.1
28.0450	2.1
28.0500	2.1
28.0550	2.1
28.0600	2.1
28.0650	2.0
28.0700	2.1
28.0750	2.1
28.0800	2.0
28.0850	2.1
28.0900	2.1
28.0950	2.0
28.1000	2.1
28.1050	2.0
28.1100	2.1
28.1150	2.1
28.1200	2.1
28.1250	2.1
28.1300	2.1
28.1350	2.1
28.1400	2.1
28.1450	2.1
28.1500	2.1
28.1550	2.1
28.1600	2.1
28.1650	2.0
28.1700	2.1
28.1750	2.1
28.1800	2.0
28.1850	2.1
28.1900	2.1
28.1950	2.0
28.2000	2.1
28.2050	2.1
28.2100	2.0
28.2150	2.1
28.2200	2.1
28.2250	2.1
28.2300	2.1
28.2350	2.1
28.2400	2.1
28.2450	2.1
28.2500	2.1
28.2550	2.1
28.2600	2.1
28.2650	2.1
28.2700	2.1
28.2750	2.1
28.2800	2.0
28.2850	2.1
28.2900	2.1
28.2950	2.0
28.3000	2.1
28.3050	2.1
28.3100	2.1
28.3150	2.1
28.3200	2.1
28.3250	2.1
28.3300	2.1
28.3350	2.1
28.3400	2.1
28.3450	2.1
28.3500	2.1
28.3550	2.1
28.3600	2.1
28.3650	2.0
28.3700	2.1
28.3750	2.1
28.3800	2.0
28.3850	2.1
28.3900	2.1
28.3950	2.0
28.4000	2.1
28.4050	2.1
28.4100	2.0
28.4150	2.1
28.4200	2.1
28.4250	2.0
28.4300	2.1
28.4350	2.1
28.4400	2.0
28.4450	2.1
28.4500	2.1
28.4550	2.1
28.4600	2.1
28.4650	2.1
28.4700	2.1
28.4750	2.1
28.4800	2.0
28.4850	2.1
28.4900	2.1
28.4950	2.0
28.5000	2.1
28.5050	2.1
28.5100	2.0
28.5150	2.1
28.5200	2.1
28.5250	2.0
28.5300	2.1
28.5350	2.1
28.5400	2.0
28.5450	2.1
28.5500	2.1
28.5550	2.0
28.5600	2.1
28.5650	2.1
28.5700	2.1
28.5750	2.1
28.5800	2.1
28.5850	2.0
28.5900	2.1
28.5950	2.1
28.6000	2.1
28.6050	2.1
28.6100	2.1
28.6150	2.1
28.6200	2.1
28.6250	2.0
28.6300	2.1
28.6350	2.1
28.6400	2.0
28.6450	2.1
28.6500	2.1
28.6550	2.1
28.6600	2.1
28.6650	2.1
28.6700	2.0
28.6750	2.1
28.6800	2.1
28.6850	2.1
28.6900	2.1
28.6950	2.1
28.7000	2.1
28.7050	2.1
28.7100	2.1
28.7150	2.1
28.7200	2.1
28.7250	2.1
28.7300	2.1
28.7350	2.1
28.7400	2.0
28.7450	2.1
28.7500	2.1
28.7550	2.0
28.7600	2.1
28.7650	2.1
28.7700	2.0
28.7750	2.1
28.7800	2.1
28.7850	2.1
28.7900	2.1
28.7950	2.1
28.8000	2.1
28.8050	2.1
28.8100	2.1
28.8150	2.1
28.8200	2.1
28.8250	2.1
28.8300	2.1
28.8350	2.1
28.8400	2.1
28.8450	2.1
28.8500	2.1
28.8550	2.0
28.8600	2.1
28.8650	2.1
28.8700	2.1
28.8750	2.1
28.8800	2.1
28.8850	2.0
28.8900	2.1
28.8950	2.1
28.9000	2.0
28.9050	2.1
28.9100	2.1
28.9150	2.0
28.9200	2.1
28.9250	2.1
28.9300	2.1
28.9350	2.1
28.9400	2.1
28.9450	2.1
28.9500	2.1
28.9550	2.1
28.9600	2.1
28.9650	2.1
28.9700	2.1
28.9750	2.1
28.9800	2.1
28.9850	2.1
28.9900	2.1
28.9950	2.1
29.0000	2.0
29.0050	2.1
29.0100	2.1
29.0150	2.1
29.0200	2.1
29.0250	2.1
29.0300	2.0
29.0350	2.1
29.0400	2.1
29.0450	2.1
29.0500	2.1
29.0550	2.1
29.0600	2.1
29.0650	2.1
29.0700	2.1
29.0750	2.1
29.0800	2.1
29.0850	2.1
29.0900	2.1
29.0950	2.1
29.1000	2.0
29.1050	2.1
29.1100	2.1
29.1150	2.0
29.1200	2.1
29.1250	2.1
29.1300	2.0
29.1350	2.1
29.1400	2.1
29.1450	2.0
29.1500	2.1
29.1550	2.1
29.1600	2.0
29.1650	2.1
29.1700	2.1
29.1750	2.0
29.1800	2.1
29.1850	2.1
29.1900	2.1
29.1950	2.1
29.2000	2.1
29.2050	2.1
29.2100	2.1
29.2150	2.0
29.2200	2.1
29.2250	2.1
29.2300	2.0
29.2350	2.1
29.2400	2.1
29.2450	2.0
29.2500	2.1
29.2550	2.1
29.2600	2.0
29.2650	2.1
29.2700	2.1
29.2750	2.0
29.2800	2.1
29.2850	2.1
29.2900	2.1
29.2950	2.1
29.3000	2.1
29.3050	2.1
29.3100	2.1
29.3150	2.1
29.3200	2.1
29.3250	2.1
29.3300	2.0
29.3350	2.1
29.3400	2.1
29.3450	2.0
29.3500	2.1
29.3550	2.1
29.3600	2.0
29.3650	2.1
29.3700	2.1
29.3750	2.0
29.3800	2.1
29.3850	2.1
29.3900	2.0
29.3950	2.1
29.4000	2.1
29.4050	2.1
29.4100	2.1
29.4150	2.1
29.4200	2.0
29.4250	2.1
29.4300	2.1
29.4350	2.1
29.4400	2.1
29.4450	2.1
29.4500	2.1
29.4550	2.1
29.4600	2.0
29.4650	2.1
29.4700	2.1
29.4750	2.0
29.4800	2.1
29.4850	2.1
29.4900	2.0
29.4950	2.1
29.5000	2.1
29.5050	2.1
29.5100	2.1
29.5150	2.1
29.5200	2.1
29.5250	2.1
29.5300	2.1
29.5350	2.1
29.5400	2.1
29.5450	2.1
29.5500	2.1
29.5550	2.1
29.5600	2.1
29.5650	2.1
29.5700	2.1
29.5750	2.0
29.5800	2.1
29.5850	2.1
29.5900	2.0
29.5950	2.1
29.6000	2.1
29.6050	2.1
29.6100	2.1
29.6150	2.1
29.6200	2.1
29.6250	2.1
29.6300	2.1
29.6350	2.1
29.6400	2.1
29.6450	2.1
29.6500	2.1
29.6550	2.1
29.6600	2.1
29.6650	2.1
29.6700	2.1
29.6750	2.1
29.6800	2.1
29.6850	2.1
29.6900	2.1
29.6950	2.1
29.7000	2.1
29.7050	2.0
29.7100	2.1
29.7150	2.1
29.7200	2.1
29.7250	2.1
29.7300	2.1
29.7350	2.0
29.7400	2.1
29.7450	2.1
29.7500	2.1
29.7550	2.1
29.7600	2.1
29.7650	2.1
29.7700	2.1
29.7750	2.1
29.7800	2.1
29.7850	2.1
29.7900	2.1
29.7950	2.1
29.8000	2.1
29.8050	2.1
29.8100	2.1
29.8150	2.1
29.8200	2.1
29.8250	2.1
29.8300	2.1
29.8350	2.0
29.8400	2.1
29.8450	2.1
29.8500	2.0
29.8550	2.1
29.8600	2.1
29.8650	2.1
29.8700	2.1
29.8750	2.1
29.8800	2.1
29.8850	2.1
29.8900	2.1
29.8950	2.1
29.9000	2.1
29.9050	2.1
29.9100	2.1
29.9150	2.1
29.9200	2.1
29.9250	2.1
29.9300	2.1
29.9350	2.1
29.9400	2.1
29.9450	2.1
29.9500	2.0
29.9550	2.1
29.9600	2.1
29.9650	2.1
29.9700	2.1
29.9750	2.1
29.9800	2.0
29.9850	2.1
29.9900	2.1
29.9950	2.1
30.0000	2.1
30.0050	2.1
30.0100	2.1
30.0150	2.1
30.0200	2.1
30.0250	2.1
30.0300	2.1
30.0350	2.1
30.0400	2.1
30.0450	2.1
30.0500	2.1
30.0550	2.1
30.0600	2.1
30.0650	2.1
30.0700	2.1
30.0750	2.1
30.0800	2.1
30.0850	2.1
30.0900	2.1
30.0950	2.0
30.1000	2.1
30.1050	2.1
30.1100	2.1
30.1150	2.1
30.1200	2.1
30.1250	2.1
30.1300	2.1
30.1350	2.1
30.1400	2.1
30.1450	2.1
30.1500	2.1
30.1550	2.1
30.1600	2.1
30.1650	2.1
30.1700	2.1
30.1750	2.1
30.1800	2.1
30.1850	2.1
30.1900	2.1
30.1950	2.1
30.2000	2.1
30.2050	2.1
30.2100	2.1
30.2150	2.1
30.2200	2.1
30.2250	2.0
30.2300	2.1
30.2350	2.1
30.2400	2.1
30.2450	2.1
30.2500	2.1
30.2550	2.1
30.2600	2.1
30.2650	2.1
30.2700	2.1
30.2750	2.1
30.2800	2.1
30.2850	2.1
30.2900	2.1
30.2950	2.1
30.3000	2.1
30.3050	2.1
30.3100	2.1
30.3150	2.1
30.3200	2.1
30.3250	2.1
30.3300	2.1
30.3350	2.1
30.3400	2.1
30.3450	2.1
30.3500	2.1
30.3550	2.1
30.3600	2.1
30.3650	2.1
30.3700	2.1
30.3750	2.1
30.3800	2.1
30.3850	2.1
30.3900	2.1
30.3950	2.1
30.4000	2.1
30.4050	2.1
30.4100	2.1
30.4150	2.1
30.4200	2.1
30.4250	2.1
30.4300	2.1
30.4350	2.1
30.4400	2.1
30.4450	2.1
30.4500	2.2
30.4550	2.1
30.4600	2.1
30.4650	2.1
30.4700	2.1
30.4750	2.1
30.4800	2.1
30.4850	2.1
30.4900	2.1
30.4950	2.1
30.5000	2.1
30.5050	2.1
30.5100	2.1
30.5150	2.1
30.5200	2.1
30.5250	2.1
30.5300	2.1
30.5350	2.1
30.5400	2.1
30.5450	2.1
30.5500	2.1
30.5550	2.1
30.5600	2.1
30.5650	2.1
30.5700	2.1
30.5750	2.1
30.5800	2.2
30.5850	2.1
30.5900	2.1
30.5950	2.1
30.6000	2.1
30.6050	2.1
30.6100	2.1
30.6150	2.1
30.6200	2.1
30.6250	2.1
30.6300	2.1
30.6350	2.1
30.6400	2.1
30.6450	2.1
30.6500	2.2
30.6550	2.1
30.6600	2.1
30.6650	2.1
30.6700	2.1
30.6750	2.1
30.6800	2.2
30.6850	2.1
30.6900	2.1
30.6950	2.1
30.7000	2.1
30.7050	2.1
30.7100	2.1
30.7150	2.1
30.7200	2.1
30.7250	2.1
30.7300	2.1
30.7350	2.1
30.7400	2.1
30.7450	2.1
30.7500	2.1
30.7550	2.1
30.7600	2.1
30.7650	2.1
30.7700	2.1
30.7750	2.1
30.7800	2.1
30.7850	2.1
30.7900	2.1
30.7950	2.1
30.8000	2.1
30.8050	2.1
30.8100	2.2
30.8150	2.1
30.8200	2.1
30.8250	2.2
30.8300	2.1
30.8350	2.1
30.8400	2.1
30.8450	2.1
30.8500	2.1
30.8550	2.1
30.8600	2.1
30.8650	2.1
30.8700	2.1
30.8750	2.1
30.8800	2.1
30.8850	2.1
30.8900	2.1
30.8950	2.2
30.9000	2.1
30.9050	2.1
30.9100	2.1
30.9150	2.1
30.9200	2.1
30.9250	2.1
30.9300	2.1
30.9350	2.1
30.9400	2.2
30.9450	2.1
30.9500	2.1
30.9550	2.2
30.9600	2.1
30.9650	2.1
30.9700	2.2
30.9750	2.1
30.9800	2.1
30.9850	2.2
30.9900	2.1
30.9950	2.1
31.0000	2.1
31.0050	2.1
31.0100	2.1
31.0150	2.1
31.0200	2.1
31.0250	2.1
31.0300	2.1
31.0350	2.1
31.0400	2.1
31.0450	2.1
31.0500	2.1
31.0550	2.2
31.0600	2.1
31.0650	2.1
31.0700	2.2
31.0750	2.1
31.0800	2.1
31.0850	2.2
31.0900	2.1
31.0950	2.1
31.1000	2.2
31.1050	2.1
31.1100	2.1
31.1150	2.2
31.1200	2.1
31.1250	2.1
31.1300	2.2
31.1350	2.1
31.1400	2.1
31.1450	2.1
31.1500	2.1
31.1550	2.1
31.1600	2.1
31.1650	2.1
31.1700	2.1
31.1750	2.1
31.1800	2.1
31.1850	2.1
31.1900	2.1
31.1950	2.1
31.2000	2.2
31.2050	2.1
31.2100	2.1
31.2150	2.2
31.2200	2.1
31.2250	2.1
31.2300	2.1
31.2350	2.1
31.2400	2.1
31.2450	2.1
31.2500	2.1
31.2550	2.1
31.2600	2.1
31.2650	2.1
31.2700	2.1
31.2750	2.1
31.2800	2.1
31.2850	2.1
31.2900	2.1
31.2950	2.1
31.3000	2.1
31.3050	2.1
31.3100	2.1
31.3150	2.1
31.3200	2.1
31.3250	2.1
31.3300	2.1
31.3350	2.1
31.3400	2.1
31.3450	2.2
31.3500	2.1
31.3550	2.1
31.3600	2.2
31.3650	2.1
31.3700	2.1
31.3750	2.2
31.3800	2.1
31.3850	2.1
31.3900	2.1
31.3950	2.1
31.4000	2.1
31.4050	2.1
31.4100	2.1
31.4150	2.1
31.4200	2.1
31.4250	2.1
31.4300	2.1
31.4350	2.1
31.4400	2.1
31.4450	2.2
31.4500	2.1
31.4550	2.1
31.4600	2.1
31.4650	2.1
31.4700	2.1
31.4750	2.2
31.4800	2.1
31.4850	2.1
31.4900	2.1
31.4950	2.1
31.5000	2.1
31.5050	2.2
31.5100	2.1
31.5150	2.1
31.5200	2.2
31.5250	2.1
31.5300	2.1
31.5350	2.1
31.5400	2.1
31.5450	2.1
31.5500	2.1
31.5550	2.1
31.5600	2.1
31.5650	2.1
31.5700	2.1
31.5750	2.1
31.5800	2.1
31.5850	2.1
31.5900	2.2
31.5950	2.1
31.6000	2.1
31.6050	2.1
31.6100	2.1
31.6150	2.1
31.6200	2.1
31.6250	2.1
31.6300	2.1
31.6350	2.2
31.6400	2.1
31.6450	2.1
31.6500	2.2
31.6550	2.1
31.6600	2.1
31.6650	2.2
31.6700	2.1
31.6750	2.1
31.6800	2.1
31.6850	2.1
31.6900	2.1
31.6950	2.1
31.7000	2.1
31.7050	2.1
31.7100	2.1
31.7150	2.1
31.7200	2.1
31.7250	2.1
31.7300	2.1
31.7350	2.2
31.7400	2.1
31.7450	2.1
31.7500	2.2
31.7550	2.1
31.7600	2.1
31.7650	2.2
31.7700	2.1
31.7750	2.1
31.7800	2.2
31.7850	2.1
31.7900	2.1
31.7950	2.2
31.8000	2.1
31.8050	2.1
31.8100	2.1
31.8150	2.1
31.8200	2.1
31.8250	2.1
31.8300	2.1
31.8350	2.1
31.8400	2.1
31.8450	2.1
31.8500	2.1
31.8550	2.1
31.8600	2.1
31.8650	2.1
31.8700	2.1
31.8750	2.1
31.8800	2.2
31.8850	2.1
31.8900	2.1
31.8950	2.2
31.9000	2.1
31.9050	2.1
31.9100	2.2
31.9150	2.1
31.9200	2.1
31.9250	2.2
31.9300	2.1
31.9350	2.1
31.9400	2.1
31.9450	2.1
31.9500	2.1
31.9550	2.1
31.9600	2.1
31.9650	2.1
31.9700	2.1
31.9750	2.1
31.9800	2.2
31.9850	2.1
31.9900	2.1
31.9950	2.2
32.0000	2.1
32.0050	2.1
32.0100	2.2
32.0150	2.1
32.0200	2.1
32.0250	2.2
32.0300	2.1
32.0350	2.1
32.0400	2.2
32.0450	2.1
32.0500	2.1
32.0550	2.2
32.0600	2.1
32.0650	2.1
32.0700	2.2
32.0750	2.1
32.0800	2.1
32.0850	2.1
32.0900	2.1
32.0950	2.1
32.1000	2.1
32.1050	2.1
32.1100	2.1
32.1150	2.1
32.1200	2.1
32.1250	2.1
32.1300	2.1
32.1350	2.1
32.1400	2.2
32.1450	2.1
32.1500	2.1
32.1550	2.2
32.1600	2.1
32.1650	2.1
32.1700	2.1
32.1750	2.1
32.1800	2.1
32.1850	2.2
32.1900	2.1
32.1950	2.1
32.2000	2.2
32.2050	2.1
32.2100	2.1
32.2150	2.2
32.2200	2.1
32.2250	2.1
32.2300	2.1
32.2350	2.1
32.2400	2.1
32.2450	2.1
32.2500	2.1
32.2550	2.1
32.2600	2.1
32.2650	2.1
32.2700	2.2
32.2750	2.1
32.2800	2.1
32.2850	2.2
32.2900	2.1
32.2950	2.1
32.3000	2.2
32.3050	2.1
32.3100	2.1
32.3150	2.2
32.3200	2.1
32.3250	2.1
32.3300	2.2
32.3350	2.1
32.3400	2.1
32.3450	2.1
32.3500	2.1
32.3550	2.1
32.3600	2.1
32.3650	2.1
32.3700	2.1
32.3750	2.1
32.3800	2.1
32.3850	2.1
32.3900	2.1
32.3950	2.1
32.4000	2.2
32.4050	2.1
32.4100	2.1
32.4150	2.2
32.4200	2.1
32.4250	2.1
32.4300	2.2
32.4350	2.1
32.4400	2.1
32.4450	2.2
32.4500	2.1
32.4550	2.1
32.4600	2.1
32.4650	2.1
32.4700	2.1
32.4750	2.2
32.4800	2.1
32.4850	2.1
32.4900	2.1
32.4950	2.1
32.5000	2.1
32.5050	2.1
32.5100	2.1
32.5150	2.1
32.5200	2.1
32.5250	2.1
32.5300	2.1
32.5350	2.1
32.5400	2.1
32.5450	2.1
32.5500	2.1
32.5550	2.1
32.5600	2.2
32.5650	2.1
32.5700	2.1
32.5750	2.2
32.5800	2.1
32.5850	2.1
32.5900	2.2
32.5950	2.1
32.6000	2.1
32.6050	2.2
32.6100	2.1
32.6150	2.1
32.6200	2.1
32.6250	2.1
32.6300	2.1
32.6350	2.1
32.6400	2.1
32.6450	2.1
32.6500	2.1
32.6550	2.0
32.6600	2.0
32.6650	1.9
32.6700	1.7
32.6750	1.7
32.6800	1.6
32.6850	1.4
32.6900	1.5
32.6950	1.5
32.7000	1.3
32.7050	1.4
32.7100	1.5
32.7150	1.4
32.7200	1.4
32.7250	1.5
32.7300	1.4
32.7350	1.3
32.7400	1.3
32.7450	1.3
32.7500	1.2
32.7550	1.1
32.7600	1.1
32.7650	1.1
32.7700	1.0
32.7750	0.9
32.7800	1.0
32.7850	1.1
32.7900	0.9
32.7950	0.9
32.8000	1.1
32.8050	1.1
32.8100	0.9
32.8150	0.9
32.8200	0.9
32.8250	0.9
32.8300	0.9
32.8350	0.7
32.8400	0.7
32.8450	0.8
32.8500	0.8
32.8550	0.7
32.8600	0.6
32.8650	0.8
32.8700	0.8
32.8750	0.8
32.8800	0.7
32.8850	0.7
32.8900	0.9
32.8950	0.8
32.9000	0.6
32.9050	0.7
32.9100	0.7
32.9150	0.6
32.9200	0.6
32.9250	0.6
32.9300	0.6
32.9350	0.5
32.9400	0.6
32.9450	0.6
32.9500	0.6
32.9550	0.6
32.9600	0.5
32.9650	0.6
32.9700	0.7
32.9750	0.6
32.9800	0.5
32.9850	0.5
32.9900	0.5
32.9950	0.5
33.0000	0.5
33.0050	0.4
33.0100	0.4
33.0150	0.4
33.0200	0.4
33.0250	0.5
33.0300	0.5
33.0350	0.5
33.0400	0.4
33.0450	0.5
33.0500	0.5
33.0550	0.5
33.0600	0.4
33.0650	0.4
33.0700	0.4
33.0750	0.4
33.0800	0.4
33.0850	0.4
33.0900	0.4
33.0950	0.4
33.1000	0.3
33.1050	0.4
33.1100	0.4
33.1150	0.4
33.1200	0.4
33.1250	0.4
33.1300	0.4
33.1350	0.4
33.1400	0.3
33.1450	0.3
33.1500	0.4
33.1550	0.3
33.1600	0.3
33.1650	0.3
33.1700	0.3
33.1750	0.3
33.1800	0.3
33.1850	0.4
33.1900	0.4
33.1950	0.4
33.2000	0.3
33.2050	0.3
33.2100	0.3
33.2150	0.3
33.2200	0.3
33.2250	0.3
33.2300	0.3
33.2350	0.3
33.2400	0.3
33.2450	0.3
33.2500	0.3
33.2550	0.3
33.2600	0.3
33.2650	0.3
33.2700	0.3
33.2750	0.3
33.2800	0.3
33.2850	0.3
33.2900	0.3
33.2950	0.3
33.3000	0.3
33.3050	0.3
33.3100	0.3
33.3150	0.3
33.3200	0.3
33.3250	0.3
33.3300	0.3
33.3350	0.2
33.3400	0.2
33.3450	0.2
33.3500	0.3
33.3550	0.3
33.3600	0.3
33.3650	0.3
33.3700	0.3
33.3750	0.3
33.3800	0.3
33.3850	0.2
33.3900	0.2
33.3950	0.2
33.4000	0.2
33.4050	0.2
33.4100	0.2
33.4150	0.2
33.4200	0.2
33.4250	0.2
33.4300	0.2
33.4350	0.2
33.4400	0.3
33.4450	0.2
33.4500	0.2
33.4550	0.2
33.4600	0.2
33.4650	0.2
33.4700	0.2
33.4750	0.2
33.4800	0.2
33.4850	0.2
33.4900	0.2
33.4950	0.2
33.5000	0.2
33.5050	0.2
33.5100	0.2
33.5150	0.2
33.5200	0.2
33.5250	0.2
33.5300	0.2
33.5350	0.2
33.5400	0.2
33.5450	0.2
33.5500	0.2
33.5550	0.2
33.5600	0.2
33.5650	0.2
33.5700	0.2
33.5750	0.2
33.5800	0.2
33.5850	0.2
33.5900	0.2
33.5950	0.2
33.6000	0.2
33.6050	0.2
33.6100	0.2
33.6150	0.2
33.6200	0.2
33.6250	0.2
33.6300	0.2
33.6350	0.2
33.6400	0.2
33.6450	0.2
33.6500	0.2
33.6550	0.2
33.6600	0.2
33.6650	0.2
33.6700	0.2
33.6750	0.2
33.6800	0.2
33.6850	0.2
33.6900	0.2
33.6950	0.2
33.7000	0.2
33.7050	0.2
33.7100	0.2
33.7150	0.2
33.7200	0.2
33.7250	0.2
33.7300	0.2
33.7350	0.2
33.7400	0.2
33.7450	0.2
33.7500	0.2
33.7550	0.2
33.7600	0.2
33.7650	0.2
33.7700	0.2
33.7750	0.2
33.7800	0.2
33.7850	0.2
33.7900	0.2
33.7950	0.2
33.8000	0.2
33.8050	0.2
33.8100	0.2
33.8150	0.2
33.8200	0.2
33.8250	0.2
33.8300	0.2
33.8350	0.2
33.8400	0.2
33.8450	0.2
33.8500	0.2
33.8550	0.2
33.8600	0.2
33.8650	0.2
33.8700	0.2
33.8750	0.2
33.8800	0.2
33.8850	0.2
33.8900	0.2
33.8950	0.2
33.9000	0.2
33.9050	0.2
33.9100	0.2
33.9150	0.2
33.9200	0.2
33.9250	0.2
33.9300	0.2
33.9350	0.2
33.9400	0.2
33.9450	0.2
33.9500	0.2
33.9550	0.2
33.9600	0.2
33.9650	0.2
33.9700	0.2
33.9750	0.2
33.9800	0.2
33.9850	0.2
33.9900	0.2
33.9950	0.2
34.0000	0.2
34.0050	0.2
34.0100	0.2
34.0150	0.2
34.0200	0.2
34.0250	0.2
34.0300	0.2
34.0350	0.2
34.0400	0.2
34.0450	0.2
34.0500	0.2
34.0550	0.2
34.0600	0.2
34.0650	0.2
34.0700	0.2
34.0750	0.2
34.0800	0.2
34.0850	0.2
34.0900	0.2
34.0950	0.2
34.1000	0.2
34.1050	0.2
34.1100	0.2
34.1150	0.2
34.1200	0.2
34.1250	0.2
34.1300	0.2
34.1350	0.2
34.1400	0.2
34.1450	0.2
34.1500	0.2
34.1550	0.2
34.1600	0.2
34.1650	0.2
34.1700	0.2
34.1750	0.2
34.1800	0.2
34.1850	0.2
34.1900	0.2
34.1950	0.2
34.2000	0.2
34.2050	0.2
34.2100	0.2
34.2150	0.2
34.2200	0.2
34.2250	0.2
34.2300	0.2
34.2350	0.2
34.2400	0.2
34.2450	0.2
34.2500	0.2
34.2550	0.2
34.2600	0.2
34.2650	0.2
34.2700	0.2
34.2750	0.2
34.2800	0.2
34.2850	0.2
34.2900	0.2
34.2950	0.2
34.3000	0.2
34.3050	0.2
34.3100	0.2
34.3150	0.2
34.3200	0.2
34.3250	0.2
34.3300	0.2
34.3350	0.2
34.3400	0.2
34.3450	0.2
34.3500	0.2
34.3550	0.2
34.3600	0.2
34.3650	0.2
34.3700	0.2
34.3750	0.2
34.3800	0.2
34.3850	0.2
34.3900	0.2
34.3950	0.2
34.4000	0.2
34.4050	0.2
34.4100	0.2
34.4150	0.2
34.4200	0.2
34.4250	0.2
34.4300	0.2
34.4350	0.2
34.4400	0.2
34.4450	0.2
34.4500	0.2
34.4550	0.2
34.4600	0.2
34.4650	0.2
34.4700	0.2
34.4750	0.2
34.4800	0.2
34.4850	0.2
34.4900	0.2
34.4950	0.2
34.5000	0.2
34.5050	0.2
34.5100	0.2
34.5150	0.2
34.5200	0.2
34.5250	0.2
34.5300	0.2
34.5350	0.2
34.5400	0.2
34.5450	0.2
34.5500	0.2
34.5550	0.2
34.5600	0.2
34.5650	0.2
34.5700	0.2
34.5750	0.2
34.5800	0.2
34.5850	0.2
34.5900	0.2
34.5950	0.2
34.6000	0.2
34.6050	0.2
34.6100	0.2
34.6150	0.2
34.6200	0.2
34.6250	0.2
34.6300	0.2
34.6350	0.2
34.6400	0.2
34.6450	0.2
34.6500	0.2
34.6550	0.2
34.6600	0.2
34.6650	0.2
34.6700	0.2
34.6750	0.2
34.6800	0.2
34.6850	0.2
34.6900	0.2
34.6950	0.2
34.7000	0.2
34.7050	0.2
34.7100	0.2
34.7150	0.2
34.7200	0.2
34.7250	0.2
34.7300	0.2
34.7350	0.2
34.7400	0.2
34.7450	0.2
34.7500	0.2
34.7550	0.2
34.7600	0.2
34.7650	0.2
34.7700	0.2
34.7750	0.2
34.7800	0.2
34.7850	0.2
34.7900	0.2
34.7950	0.2
34.8000	0.2
34.8050	0.2
34.8100	0.2
34.8150	0.2
34.8200	0.2
34.8250	0.2
34.8300	0.2
34.8350	0.2
34.8400	0.2
34.8450	0.2
34.8500	0.2
34.8550	0.2
34.8600	0.2
34.8650	0.2
34.8700	0.2
34.8750	0.2
34.8800	0.2
34.8850	0.2
34.8900	0.2
34.8950	0.2
34.9000	0.2
34.9050	0.2
34.9100	0.2
34.9150	0.2
34.9200	0.2
34.9250	0.2
34.9300	0.2
34.9350	0.2
34.9400	0.2
34.9450	0.2
34.9500	0.2
34.9550	0.2
34.9600	0.2
34.9650	0.2
34.9700	0.2
34.9750	0.2
34.9800	0.2
34.9850	0.2
34.9900	0.2
34.9950	0.2
35.0000	0.2
35.0050	0.2
35.0100	0.2
35.0150	0.2
35.0200	0.2
35.0250	0.2
35.0300	0.2
35.0350	0.2
35.0400	0.2
35.0450	0.2
35.0500	0.2
35.0550	0.2
35.0600	0.2
35.0650	0.2
35.0700	0.2
35.0750	0.2
35.0800	0.2
35.0850	0.2
35.0900	0.2
35.0950	0.2
35.1000	0.2
35.1050	0.2
35.1100	0.2
35.1150	0.2
35.1200	0.2
35.1250	0.2
35.1300	0.2
35.1350	0.2
35.1400	0.2
35.1450	0.2
35.1500	0.2
35.1550	0.2
35.1600	0.2
35.1650	0.2
35.1700	0.2
35.1750	0.2
35.1800	0.2
35.1850	0.2
35.1900	0.2
35.1950	0.2
35.2000	0.2
35.2050	0.2
35.2100	0.2
35.2150	0.2
35.2200	0.2
35.2250	0.2
35.2300	0.2
35.2350	0.2
35.2400	0.2
35.2450	0.2
35.2500	0.2
35.2550	0.2
35.2600	0.2
35.2650	0.2
35.2700	0.2
35.2750	0.2
35.2800	0.2
35.2850	0.2
35.2900	0.2
35.2950	0.2
35.3000	0.2
35.3050	0.2
35.3100	0.2
35.3150	0.2
35.3200	0.2
35.3250	0.2
35.3300	0.2
35.3350	0.2
35.3400	0.2
35.3450	0.2
35.3500	0.2
35.3550	0.2
35.3600	0.2
35.3650	0.2
35.3700	0.2
35.3750	0.2
35.3800	0.2
35.3850	0.2
35.3900	0.2
35.3950	0.2
35.4000	0.2
35.4050	0.2
35.4100	0.2
35.4150	0.2
35.4200	0.2
35.4250	0.2
35.4300	0.2
35.4350	0.2
35.4400	0.2
35.4450	0.2
35.4500	0.2
35.4550	0.2
35.4600	0.2
35.4650	0.2
35.4700	0.2
35.4750	0.2
35.4800	0.2
35.4850	0.2
35.4900	0.2
35.4950	0.2
35.5000	0.2
35.5050	0.2
35.5100	0.2
35.5150	0.2
35.5200	0.2
35.5250	0.2
35.5300	0.2
35.5350	0.2
35.5400	0.2
35.5450	0.2
35.5500	0.2
35.5550	0.2
35.5600	0.2
35.5650	0.2
35.5700	0.2
35.5750	0.2
35.5800	0.2
35.5850	0.2
35.5900	0.2
35.5950	0.2
35.6000	0.2
35.6050	0.2
35.6100	0.2
35.6150	0.2
35.6200	0.2
35.6250	0.2
35.6300	0.2
35.6350	0.2
35.6400	0.2
35.6450	0.2
35.6500	0.2
35.6550	0.2
35.6600	0.2
35.6650	0.2
35.6700	0.2
35.6750	0.2
35.6800	0.2
35.6850	0.2
35.6900	0.2
35.6950	0.2
35.7000	0.2
35.7050	0.2
35.7100	0.2
35.7150	0.2
35.7200	0.2
35.7250	0.2
35.7300	0.2
35.7350	0.2
35.7400	0.2
35.7450	0.2
35.7500	0.2
35.7550	0.2
35.7600	0.2
35.7650	0.2
35.7700	0.2
35.7750	0.2
35.7800	0.2
35.7850	0.2
35.7900	0.2
35.7950	0.2
35.8000	0.2
35.8050	0.2
35.8100	0.2
35.8150	0.2
35.8200	0.2
35.8250	0.2
35.8300	0.2
35.8350	0.2
35.8400	0.2
35.8450	0.2
35.8500	0.2
35.8550	0.2
35.8600	0.2
35.8650	0.2
35.8700	0.2
35.8750	0.2
35.8800	0.2
35.8850	0.2
35.8900	0.2
35.8950	0.2
35.9000	0.2
35.9050	0.2
35.9100	0.2
35.9150	0.2
35.9200	0.2
35.9250	0.2
35.9300	0.2
35.9350	0.2
35.9400	0.2
35.9450	0.2
35.9500	0.2
35.9550	0.2
35.9600	0.2
35.9650	0.2
35.9700	0.2
35.9750	0.2
35.9800	0.2
35.9850	0.2
35.9900	0.2
35.9950	0.2
36.0000	0.2
36.0050	0.2
36.0100	0.2
36.0150	0.2
36.0200	0.2
36.0250	0.2
36.0300	0.2
36.0350	0.2
36.0400	0.2
36.0450	0.2
36.0500	0.2
36.0550	0.2
36.0600	0.2
36.0650	0.2
36.0700	0.2
36.0750	0.2
36.0800	0.2
36.0850	0.2
36.0900	0.2
36.0950	0.2
36.1000	0.2
36.1050	0.2
36.1100	0.2
36.1150	0.2
36.1200	0.2
36.1250	0.2
36.1300	0.2
36.1350	0.2
36.1400	0.2
36.1450	0.2
36.1500	0.2
36.1550	0.2
36.1600	0.2
36.1650	0.2
36.1700	0.2
36.1750	0.2
36.1800	0.2
36.1850	0.2
36.1900	0.2
36.1950	0.2
36.2000	0.2
36.2050	0.2
36.2100	0.2
36.2150	0.2
36.2200	0.2
36.2250	0.2
36.2300	0.2
36.2350	0.2
36.2400	0.2
36.2450	0.2
36.2500	0.2
36.2550	0.2
36.2600	0.2
36.2650	0.2
36.2700	0.2
36.2750	0.2
36.2800	0.2
36.2850	0.2
36.2900	0.2
36.2950	0.2
36.3000	0.2
36.3050	0.2
36.3100	0.2
36.3150	0.2
36.3200	0.2
36.3250	0.2
36.3300	0.2
36.3350	0.2
36.3400	0.2
36.3450	0.2
36.3500	0.2
36.3550	0.2
36.3600	0.2
36.3650	0.2
36.3700	0.2
36.3750	0.2
36.3800	0.2
36.3850	0.2
36.3900	0.2
36.3950	0.2
36.4000	0.2
36.4050	0.2
36.4100	0.2
36.4150	0.2
36.4200	0.2
36.4250	0.2
36.4300	0.2
36.4350	0.2
36.4400	0.2
36.4450	0.2
36.4500	0.2
36.4550	0.2
36.4600	0.2
36.4650	0.2
36.4700	0.2
36.4750	0.2
36.4800	0.2
36.4850	0.2
36.4900	0.2
36.4950	0.2
36.5000	0.2
36.5050	0.2
36.5100	0.2
36.5150	0.2
36.5200	0.2
36.5250	0.2
36.5300	0.2
36.5350	0.2
36.5400	0.2
36.5450	0.2
36.5500	0.2
36.5550	0.2
36.5600	0.2
36.5650	0.2
36.5700	0.2
36.5750	0.2
36.5800	0.2
36.5850	0.2
36.5900	0.2
36.5950	0.2
36.6000	0.2
36.6050	0.2
36.6100	0.2
36.6150	0.2
36.6200	0.2
36.6250	0.2
36.6300	0.2
36.6350	0.2
36.6400	0.2
36.6450	0.2
36.6500	0.2
36.6550	0.2
36.6600	0.2
36.6650	0.2
36.6700	0.2
36.6750	0.2
36.6800	0.2
36.6850	0.2
36.6900	0.2
36.6950	0.2
36.7000	0.2
36.7050	0.2
36.7100	0.2
36.7150	0.2
36.7200	0.2
36.7250	0.2
36.7300	0.2
36.7350	0.2
36.7400	0.2
36.7450	0.2
36.7500	0.2
36.7550	0.2
36.7600	0.2
36.7650	0.2
36.7700	0.2
36.7750	0.2
36.7800	0.2
36.7850	0.2
36.7900	0.2
36.7950	0.2
36.8000	0.2
36.8050	0.2
36.8100	0.2
36.8150	0.2
36.8200	0.2
36.8250	0.2
36.8300	0.2
36.8350	0.2
36.8400	0.2
36.8450	0.2
36.8500	0.2
36.8550	0.2
36.8600	0.2
36.8650	0.2
36.8700	0.2
36.8750	0.2
36.8800	0.2
36.8850	0.2
36.8900	0.2
36.8950	0.2
36.9000	0.2
36.9050	0.2
36.9100	0.2
36.9150	0.2
36.9200	0.2
36.9250	0.2
36.9300	0.2
36.9350	0.2
36.9400	0.2
36.9450	0.2
36.9500	0.2
36.9550	0.2
36.9600	0.2
36.9650	0.2
36.9700	0.2
36.9750	0.2
36.9800	0.2
36.9850	0.2
36.9900	0.2
36.9950	0.2
37.0000	0.2
37.0050	0.2
37.0100	0.2
37.0150	0.2
37.0200	0.2
37.0250	0.2
37.0300	0.2
37.0350	0.2
37.0400	0.2
37.0450	0.2
37.0500	0.2
37.0550	0.2
37.0600	0.2
37.0650	0.2
37.0700	0.2
37.0750	0.2
37.0800	0.2
37.0850	0.2
37.0900	0.2
37.0950	0.2
37.1000	0.2
37.1050	0.2
37.1100	0.2
37.1150	0.2
37.1200	0.2
37.1250	0.2
37.1300	0.2
37.1350	0.2
37.1400	0.2
37.1450	0.2
37.1500	0.2
37.1550	0.2
37.1600	0.2
37.1650	0.2
37.1700	0.2
37.1750	0.2
37.1800	0.2
37.1850	0.2
37.1900	0.2
37.1950	0.2
37.2000	0.2
37.2050	0.2
37.2100	0.2
37.2150	0.2
37.2200	0.2
37.2250	0.2
37.2300	0.2
37.2350	0.2
37.2400	0.2
37.2450	0.2
37.2500	0.2
37.2550	0.2
37.2600	0.2
37.2650	0.2
37.2700	0.2
37.2750	0.2
37.2800	0.2
37.2850	0.2
37.2900	0.2
37.2950	0.2
37.3000	0.2
37.3050	0.2
37.3100	0.2
37.3150	0.2
37.3200	0.2
37.3250	0.2
37.3300	0.2
37.3350	0.2
37.3400	0.2
37.3450	0.2
37.3500	0.2
37.3550	0.2
37.3600	0.2
37.3650	0.2
37.3700	0.2
37.3750	0.2
37.3800	0.2
37.3850	0.2
37.3900	0.2
37.3950	0.2
37.4000	0.2
37.4050	0.2
37.4100	0.2
37.4150	0.2
37.4200	0.2
37.4250	0.2
37.4300	0.2
37.4350	0.2
37.4400	0.2
37.4450	0.2
37.4500	0.2
37.4550	0.2
37.4600	0.2
37.4650	0.2
37.4700	0.2
37.4750	0.2
37.4800	0.2
37.4850	0.2
37.4900	0.2
37.4950	0.2
37.5000	0.2
37.5050	0.2
37.5100	0.2
37.5150	0.2
37.5200	0.2
37.5250	0.2
37.5300	0.2
37.5350	0.2
37.5400	0.2
37.5450	0.2
37.5500	0.2
37.5550	0.2
37.5600	0.2
37.5650	0.2
37.5700	0.2
37.5750	0.2
37.5800	0.2
37.5850	0.2
37.5900	0.2
37.5950	0.2
37.6000	0.2
37.6050	0.2
37.6100	0.2
37.6150	0.2
37.6200	0.2
37.6250	0.2
37.6300	0.2
37.6350	0.2
37.6400	0.2
37.6450	0.2
37.6500	0.2
37.6550	0.2
37.6600	0.2
37.6650	0.2
37.6700	0.2
37.6750	0.2
37.6800	0.2
37.6850	0.2
37.6900	0.2
37.6950	0.2
37.7000	0.2
37.7050	0.2
37.7100	0.2
37.7150	0.2
37.7200	0.2
37.7250	0.2
37.7300	0.2
37.7350	0.2
37.7400	0.2
37.7450	0.2
37.7500	0.2
37.7550	0.2
37.7600	0.2
37.7650	0.2
37.7700	0.2
37.7750	0.2
37.7800	0.2
37.7850	0.2
37.7900	0.2
37.7950	0.2
37.8000	0.2
37.8050	0.2
37.8100	0.2
37.8150	0.2
37.8200	0.2
37.8250	0.2
37.8300	0.2
37.8350	0.2
37.8400	0.2
37.8450	0.2
37.8500	0.2
37.8550	0.2
37.8600	0.2
37.8650	0.2
37.8700	0.2
37.8750	0.2
37.8800	0.2
37.8850	0.2
37.8900	0.2
37.8950	0.2
37.9000	0.2
37.9050	0.2
37.9100	0.2
37.9150	0.2
37.9200	0.2
37.9250	0.2
37.9300	0.2
37.9350	0.2
37.9400	0.2
37.9450	0.2
37.9500	0.2
37.9550	0.2
37.9600	0.2
37.9650	0.2
37.9700	0.2
37.9750	0.2
37.9800	0.2
37.9850	0.2
37.9900	0.2
37.9950	0.2
38.0000	0.2
38.0050	0.2
38.0100	0.2
38.0150	0.2
38.0200	0.2
38.0250	0.2
38.0300	0.2
38.0350	0.2
38.0400	0.2
38.0450	0.2
38.0500	0.2
38.0550	0.2
38.0600	0.2
38.0650	0.2
38.0700	0.2
38.0750	0.2
38.0800	0.2
38.0850	0.2
38.0900	0.2
38.0950	0.2
38.1000	0.2
38.1050	0.2
38.1100	0.2
38.1150	0.2
38.1200	0.2
38.1250	0.2
38.1300	0.2
38.1350	0.2
38.1400	0.2
38.1450	0.2
38.1500	0.2
38.1550	0.2
38.1600	0.2
38.1650	0.2
38.1700	0.2
38.1750	0.2
38.1800	0.2
38.1850	0.2
38.1900	0.2
38.1950	0.2
38.2000	0.2
38.2050	0.2
38.2100	0.2
38.2150	0.2
38.2200	0.2
38.2250	0.2
38.2300	0.2
38.2350	0.2
38.2400	0.2
38.2450	0.2
38.2500	0.2
38.2550	0.2
38.2600	0.2
38.2650	0.2
38.2700	0.2
38.2750	0.2
38.2800	0.2
38.2850	0.2
38.2900	0.2
38.2950	0.2
38.3000	0.2
38.3050	0.2
38.3100	0.2
38.3150	0.2
38.3200	0.2
38.3250	0.2
38.3300	0.2
38.3350	0.2
38.3400	0.2
38.3450	0.2
38.3500	0.2
38.3550	0.2
38.3600	0.2
38.3650	0.2
38.3700	0.2
38.3750	0.2
38.3800	0.2
38.3850	0.2
38.3900	0.2
38.3950	0.2
38.4000	0.2
38.4050	0.2
38.4100	0.2
38.4150	0.2
38.4200	0.2
38.4250	0.2
38.4300	0.2
38.4350	0.2
38.4400	0.2
38.4450	0.2
38.4500	0.2
38.4550	0.2
38.4600	0.2
38.4650	0.2
38.4700	0.2
38.4750	0.2
38.4800	0.2
38.4850	0.2
38.4900	0.2
38.4950	0.2
38.5000	0.2
38.5050	0.2
38.5100	0.2
38.5150	0.2
38.5200	0.2
38.5250	0.2
38.5300	0.2
38.5350	0.2
38.5400	0.2
38.5450	0.2
38.5500	0.2
38.5550	0.2
38.5600	0.2
38.5650	0.2
38.5700	0.2
38.5750	0.2
38.5800	0.2
38.5850	0.2
38.5900	0.2
38.5950	0.2
38.6000	0.2
38.6050	0.2
38.6100	0.2
38.6150	0.2
38.6200	0.2
38.6250	0.2
38.6300	0.2
38.6350	0.2
38.6400	0.2
38.6450	0.2
38.6500	0.2
38.6550	0.2
38.6600	0.2
38.6650	0.2
38.6700	0.2
38.6750	0.2
38.6800	0.2
38.6850	0.2
38.6900	0.2
38.6950	0.2
38.7000	0.2
38.7050	0.2
38.7100	0.2
38.7150	0.2
38.7200	0.2
38.7250	0.2
38.7300	0.2
38.7350	0.2
38.7400	0.2
38.7450	0.2
38.7500	0.2
38.7550	0.2
38.7600	0.2
38.7650	0.2
38.7700	0.2
38.7750	0.2
38.7800	0.2
38.7850	0.2
38.7900	0.2
38.7950	0.2
38.8000	0.2
38.8050	0.2
38.8100	0.2
38.8150	0.2
38.8200	0.2
38.8250	0.2
38.8300	0.2
38.8350	0.2
38.8400	0.2
38.8450	0.2
38.8500	0.2
38.8550	0.2
38.8600	0.2
38.8650	0.2
38.8700	0.2
38.8750	0.2
38.8800	0.2
38.8850	0.2
38.8900	0.2
38.8950	0.2
38.9000	0.2
38.9050	0.2
38.9100	0.2
38.9150	0.2
38.9200	0.2
38.9250	0.2
38.9300	0.2
38.9350	0.2
38.9400	0.2
38.9450	0.2
38.9500	0.2
38.9550	0.2
38.9600	0.2
38.9650	0.2
38.9700	0.2
38.9750	0.2
38.9800	0.2
38.9850	0.2
38.9900	0.2
38.9950	0.2
39.0000	0.2
39.0050	0.2
39.0100	0.2
39.0150	0.2
39.0200	0.2
39.0250	0.2
39.0300	0.2
39.0350	0.2
39.0400	0.2
39.0450	0.2
39.0500	0.2
39.0550	0.2
39.0600	0.2
39.0650	0.2
39.0700	0.2
39.0750	0.2
39.0800	0.2
39.0850	0.2
39.0900	0.2
39.0950	0.2
39.1000	0.2
39.1050	0.2
39.1100	0.2
39.1150	0.2
39.1200	0.2
39.1250	0.2
39.1300	0.2
39.1350	0.2
39.1400	0.2
39.1450	0.2
39.1500	0.2
39.1550	0.2
39.1600	0.2
39.1650	0.2
39.1700	0.2
39.1750	0.2
39.1800	0.2
39.1850	0.2
39.1900	0.2
39.1950	0.2
39.2000	0.2
39.2050	0.2
39.2100	0.2
39.2150	0.2
39.2200	0.2
39.2250	0.2
39.2300	0.2
39.2350	0.2
39.2400	0.2
39.2450	0.2
39.2500	0.2
39.2550	0.2
39.2600	0.2
39.2650	0.2
39.2700	0.2
39.2750	0.2
39.2800	0.2
39.2850	0.2
39.2900	0.2
39.2950	0.2
39.3000	0.2
39.3050	0.2
39.3100	0.2
39.3150	0.2
39.3200	0.2
39.3250	0.2
39.3300	0.2
39.3350	0.2
39.3400	0.2
39.3450	0.2
39.3500	0.2
39.3550	0.2
39.3600	0.2
39.3650	0.2
39.3700	0.2
39.3750	0.2
39.3800	0.2
39.3850	0.2
39.3900	0.2
39.3950	0.2
39.4000	0.2
39.4050	0.2
39.4100	0.2
39.4150	0.2
39.4200	0.2
39.4250	0.2
39.4300	0.2
39.4350	0.2
39.4400	0.2
39.4450	0.2
39.4500	0.2
39.4550	0.2
39.4600	0.2
39.4650	0.2
39.4700	0.2
39.4750	0.2
39.4800	0.2
39.4850	0.2
39.4900	0.2
39.4950	0.2
39.5000	0.2
39.5050	0.2
39.5100	0.2
39.5150	0.2
39.5200	0.2
39.5250	0.2
39.5300	0.2
39.5350	0.2
39.5400	0.2
39.5450	0.2
39.5500	0.2
39.5550	0.2
39.5600	0.2
39.5650	0.2
39.5700	0.2
39.5750	0.2
39.5800	0.2
39.5850	0.2
39.5900	0.2
39.5950	0.2
39.6000	0.2
39.6050	0.2
39.6100	0.2
39.6150	0.2
39.6200	0.2
39.6250	0.2
39.6300	0.2
39.6350	0.2
39.6400	0.2
39.6450	0.2
39.6500	0.2
39.6550	0.2
39.6600	0.2
39.6650	0.2
39.6700	0.2
39.6750	0.2
39.6800	0.2
39.6850	0.2
39.6900	0.2
39.6950	0.2
39.7000	0.2
39.7050	0.2
39.7100	0.2
39.7150	0.2
39.7200	0.2
39.7250	0.2
39.7300	0.2
39.7350	0.2
39.7400	0.2
39.7450	0.2
39.7500	0.2
39.7550	0.2
39.7600	0.2
39.7650	0.2
39.7700	0.2
39.7750	0.2
39.7800	0.2
39.7850	0.2
39.7900	0.2
39.7950	0.2
39.8000	0.2
39.8050	0.2
39.8100	0.2
39.8150	0.2
39.8200	0.2
39.8250	0.2
39.8300	0.2
39.8350	0.2
39.8400	0.2
39.8450	0.2
39.8500	0.2
39.8550	0.2
39.8600	0.2
39.8650	0.2
39.8700	0.2
39.8750	0.2
39.8800	0.2
39.8850	0.2
39.8900	0.2
39.8950	0.2
39.9000	0.2
39.9050	0.2
39.9100	0.2
39.9150	0.2
39.9200	0.2
39.9250	0.2
39.9300	0.2
39.9350	0.2
39.9400	0.2
39.9450	0.2
39.9500	0.2
39.9550	0.2
39.9600	0.2
39.9650	0.2
39.9700	0.2
39.9750	0.2
39.9800	0.2
39.9850	0.2
39.9900	0.2
39.9950	0.2
40.0000	0.2
40.0050	0.2
40.0100	0.2
40.0150	0.2
40.0200	0.2
40.0250	0.2
40.0300	0.2
40.0350	0.2
40.0400	0.2
40.0450	0.2
40.0500	0.2
40.0550	0.2
40.0600	0.2
40.0650	0.2
40.0700	0.2
40.0750	0.2
40.0800	0.2
40.0850	0.2
40.0900	0.2
40.0950	0.2
40.1000	0.2
40.1050	0.2
40.1100	0.2
40.1150	0.2
40.1200	0.2
40.1250	0.2
40.1300	0.2
40.1350	0.2
40.1400	0.2
40.1450	0.2
40.1500	0.2
40.1550	0.2
40.1600	0.2
40.1650	0.2
40.1700	0.2
40.1750	0.2
40.1800	0.2
40.1850	0.2
40.1900	0.2
40.1950	0.2
40.2000	0.2
40.2050	0.2
40.2100	0.2
40.2150	0.2
40.2200	0.2
40.2250	0.2
40.2300	0.2
40.2350	0.2
40.2400	0.2
40.2450	0.2
40.2500	0.2
40.2550	0.2
40.2600	0.2
40.2650	0.2
40.2700	0.2
40.2750	0.2
40.2800	0.2
40.2850	0.2
40.2900	0.2
40.2950	0.2
40.3000	0.2
40.3050	0.2
40.3100	0.2
40.3150	0.2
40.3200	0.2
40.3250	0.2
40.3300	0.2
40.3350	0.2
40.3400	0.2
40.3450	0.2
40.3500	0.2
40.3550	0.2
40.3600	0.2
40.3650	0.2
40.3700	0.2
40.3750	0.2
40.3800	0.2
40.3850	0.2
40.3900	0.2
40.3950	0.2
40.4000	0.2
40.4050	0.2
40.4100	0.2
40.4150	0.2
40.4200	0.2
40.4250	0.2
40.4300	0.2
40.4350	0.2
40.4400	0.2
40.4450	0.2
40.4500	0.2
40.4550	0.2
40.4600	0.2
40.4650	0.2
40.4700	0.2
40.4750	0.2
40.4800	0.2
40.4850	0.2
40.4900	0.2
40.4950	0.2
40.5000	0.2
40.5050	0.2
40.5100	0.2
40.5150	0.2
40.5200	0.2
40.5250	0.2
40.5300	0.2
40.5350	0.2
40.5400	0.2
40.5450	0.2
40.5500	0.2
40.5550	0.2
40.5600	0.2
40.5650	0.2
40.5700	0.2
40.5750	0.2
40.5800	0.2
40.5850	0.2
40.5900	0.2
40.5950	0.2
40.6000	0.2
40.6050	0.2
40.6100	0.2
40.6150	0.2
40.6200	0.2
40.6250	0.2
40.6300	0.2
40.6350	0.2
40.6400	0.2
40.6450	0.2
40.6500	0.2
40.6550	0.2
40.6600	0.2
40.6650	0.2
40.6700	0.2
40.6750	0.2
40.6800	0.2
40.6850	0.2
40.6900	0.2
40.6950	0.2
40.7000	0.2
40.7050	0.2
40.7100	0.2
40.7150	0.2
40.7200	0.2
40.7250	0.2
40.7300	0.2
40.7350	0.2
40.7400	0.2
40.7450	0.2
40.7500	0.2
40.7550	0.2
40.7600	0.2
40.7650	0.2
40.7700	0.2
40.7750	0.2
40.7800	0.2
40.7850	0.2
40.7900	0.2
40.7950	0.2
40.8000	0.2
40.8050	0.2
40.8100	0.2
40.8150	0.2
40.8200	0.2
40.8250	0.2
40.8300	0.2
40.8350	0.2
40.8400	0.2
40.8450	0.2
40.8500	0.2
40.8550	0.2
40.8600	0.2
40.8650	0.2
40.8700	0.2
40.8750	0.2
40.8800	0.2
40.8850	0.2
40.8900	0.2
40.8950	0.2
40.9000	0.2
40.9050	0.2
40.9100	0.2
40.9150	0.2
40.9200	0.2
40.9250	0.2
40.9300	0.2
40.9350	0.2
40.9400	0.2
40.9450	0.2
40.9500	0.2
40.9550	0.2
40.9600	0.2
40.9650	0.2
40.9700	0.2
40.9750	0.2
40.9800	0.2
40.9850	0.2
40.9900	0.2
40.9950	0.2
41.0000	0.2
41.0050	0.2
41.0100	0.2
41.0150	0.2
41.0200	0.2
41.0250	0.2
41.0300	0.2
41.0350	0.2
41.0400	0.2
41.0450	0.2
41.0500	0.2
41.0550	0.2
41.0600	0.2
41.0650	0.2
41.0700	0.2
41.0750	0.2
41.0800	0.2
41.0850	0.2
41.0900	0.2
41.0950	0.2
41.1000	0.2
41.1050	0.2
41.1100	0.2
41.1150	0.2
41.1200	0.2
41.1250	0.2
41.1300	0.2
41.1350	0.2
41.1400	0.2
41.1450	0.2
41.1500	0.2
41.1550	0.2
41.1600	0.2
41.1650	0.2
41.1700	0.2
41.1750	0.2
41.1800	0.2
41.1850	0.2
41.1900	0.2
41.1950	0.2
41.2000	0.2
41.2050	0.2
41.2100	0.2
41.2150	0.2
41.2200	0.2
41.2250	0.2
41.2300	0.2
41.2350	0.2
41.2400	0.2
41.2450	0.2
41.2500	0.2
41.2550	0.2
41.2600	0.2
41.2650	0.2
41.2700	0.2
41.2750	0.2
41.2800	0.2
41.2850	0.2
41.2900	0.2
41.2950	0.2
41.3000	0.2
41.3050	0.2
41.3100	0.2
41.3150	0.2
41.3200	0.2
41.3250	0.2
41.3300	0.2
41.3350	0.2
41.3400	0.2
41.3450	0.2
41.3500	0.2
41.3550	0.2
41.3600	0.2
41.3650	0.2
41.3700	0.2
41.3750	0.2
41.3800	0.2
41.3850	0.2
41.3900	0.2
41.3950	0.2
41.4000	0.2
41.4050	0.2
41.4100	0.2
41.4150	0.2
41.4200	0.2
41.4250	0.2
41.4300	0.2
41.4350	0.2
41.4400	0.2
41.4450	0.2
41.4500	0.2
41.4550	0.2
41.4600	0.2
41.4650	0.2
41.4700	0.2
41.4750	0.2
41.4800	0.2
41.4850	0.2
41.4900	0.2
41.4950	0.2
41.5000	0.2
41.5050	0.2
41.5100	0.2
41.5150	0.2
41.5200	0.2
41.5250	0.2
41.5300	0.2
41.5350	0.2
41.5400	0.2
41.5450	0.2
41.5500	0.2
41.5550	0.2
41.5600	0.2
41.5650	0.2
41.5700	0.2
41.5750	0.2
41.5800	0.2
41.5850	0.2
41.5900	0.2
41.5950	0.2
41.6000	0.2
41.6050	0.2
41.6100	0.2
41.6150	0.2
41.6200	0.2
41.6250	0.2
41.6300	0.2
41.6350	0.2
41.6400	0.2
41.6450	0.2
41.6500	0.2
41.6550	0.2
41.6600	0.2
41.6650	0.2
41.6700	0.2
41.6750	0.2
41.6800	0.2
41.6850	0.2
41.6900	0.2
41.6950	0.2
41.7000	0.2
41.7050	0.2
41.7100	0.2
41.7150	0.2
41.7200	0.2
41.7250	0.2
41.7300	0.2
41.7350	0.2
41.7400	0.2
41.7450	0.2
41.7500	0.2
41.7550	0.2
41.7600	0.2
41.7650	0.2
41.7700	0.2
41.7750	0.2
41.7800	0.2
41.7850	0.2
41.7900	0.2
41.7950	0.2
41.8000	0.2
41.8050	0.2
41.8100	0.2
41.8150	0.2
41.8200	0.2
41.8250	0.2
41.8300	0.2
41.8350	0.2
41.8400	0.2
41.8450	0.2
41.8500	0.2
41.8550	0.2
41.8600	0.2
41.8650	0.2
41.8700	0.2
41.8750	0.2
41.8800	0.2
41.8850	0.2
41.8900	0.2
41.8950	0.2
41.9000	0.2
41.9050	0.2
41.9100	0.2
41.9150	0.2
41.9200	0.2
41.9250	0.2
41.9300	0.2
41.9350	0.2
41.9400	0.2
41.9450	0.2
41.9500	0.2
41.9550	0.2
41.9600	0.2
41.9650	0.2
41.9700	0.2
41.9750	0.2
41.9800	0.2
41.9850	0.2
41.9900	0.2
41.9950	0.2
42.0000	0.2
42.0050	0.2
42.0100	0.2
42.0150	0.2
42.0200	0.2
42.0250	0.2
42.0300	0.2
42.0350	0.2
42.0400	0.2
42.0450	0.2
42.0500	0.2
42.0550	0.2
42.0600	0.2
42.0650	0.2
42.0700	0.2
42.0750	0.2
42.0800	0.2
42.0850	0.2
42.0900	0.2
42.0950	0.2
42.1000	0.2
42.1050	0.2
42.1100	0.2
42.1150	0.2
42.1200	0.2
42.1250	0.2
42.1300	0.2
42.1350	0.2
42.1400	0.2
42.1450	0.2
42.1500	0.2
42.1550	0.2
42.1600	0.2
42.1650	0.2
42.1700	0.2
42.1750	0.2
42.1800	0.2
42.1850	0.2
42.1900	0.2
42.1950	0.2
42.2000	0.2
42.2050	0.2
42.2100	0.2
42.2150	0.2
42.2200	0.2
42.2250	0.2
42.2300	0.2
42.2350	0.2
42.2400	0.2
42.2450	0.2
42.2500	0.2
42.2550	0.2
42.2600	0.2
42.2650	0.2
42.2700	0.2
42.2750	0.2
42.2800	0.2
42.2850	0.2
42.2900	0.2
42.2950	0.2
42.3000	0.2
42.3050	0.2
42.3100	0.2
42.3150	0.2
42.3200	0.2
42.3250	0.2
42.3300	0.2
42.3350	0.2
42.3400	0.2
42.3450	0.2
42.3500	0.2
42.3550	0.2
42.3600	0.2
42.3650	0.2
42.3700	0.2
42.3750	0.2
42.3800	0.2
42.3850	0.2
42.3900	0.2
42.3950	0.2
42.4000	0.2
42.4050	0.2
42.4100	0.2
42.4150	0.2
42.4200	0.2
42.4250	0.2
42.4300	0.2
42.4350	0.2
42.4400	0.2
42.4450	0.2
42.4500	0.2
42.4550	0.2
42.4600	0.2
42.4650	0.2
42.4700	0.2
42.4750	0.2
42.4800	0.2
42.4850	0.2
42.4900	0.2
42.4950	0.2
42.5000	0.2
42.5050	0.2
42.5100	0.2
42.5150	0.2
42.5200	0.2
42.5250	0.2
42.5300	0.2
42.5350	0.2
42.5400	0.2
42.5450	0.2
42.5500	0.2
42.5550	0.2
42.5600	0.2
42.5650	0.2
42.5700	0.2
42.5750	0.2
42.5800	0.2
42.5850	0.2
42.5900	0.2
42.5950	0.2
42.6000	0.2
42.6050	0.2
42.6100	0.2
42.6150	0.2
42.6200	0.2
42.6250	0.2
42.6300	0.2
42.6350	0.2
42.6400	0.2
42.6450	0.2
42.6500	0.2
42.6550	0.2
42.6600	0.2
42.6650	0.2
42.6700	0.2
42.6750	0.2
42.6800	0.2
42.6850	0.2
42.6900	0.2
42.6950	0.2
42.7000	0.2
42.7050	0.2
42.7100	0.2
42.7150	0.2
42.7200	0.2
42.7250	0.2
42.7300	0.2
42.7350	0.2
42.7400	0.2
42.7450	0.2
42.7500	0.2
42.7550	0.2
42.7600	0.2
42.7650	0.2
42.7700	0.2
42.7750	0.2
42.7800	0.2
42.7850	0.2
42.7900	0.2
42.7950	0.2
42.8000	0.2
42.8050	0.2
42.8100	0.2
42.8150	0.2
42.8200	0.2
42.8250	0.2
42.8300	0.2
42.8350	0.2
42.8400	0.2
42.8450	0.2
42.8500	0.2
42.8550	0.2
42.8600	0.2
42.8650	0.2
42.8700	0.2
42.8750	0.2
42.8800	0.2
42.8850	0.2
42.8900	0.2
42.8950	0.2
42.9000	0.2
42.9050	0.2
42.9100	0.2
42.9150	0.2
42.9200	0.2
42.9250	0.2
42.9300	0.2
42.9350	0.2
42.9400	0.2
42.9450	0.2
42.9500	0.2
42.9550	0.2
42.9600	0.2
42.9650	0.2
42.9700	0.2
42.9750	0.2
42.9800	0.2
42.9850	0.2
42.9900	0.2
42.9950	0.2
43.0000	0.2
43.0050	0.2
43.0100	0.2
43.0150	0.2
43.0200	0.2
43.0250	0.2
43.0300	0.2
43.0350	0.2
43.0400	0.2
43.0450	0.2
43.0500	0.2
43.0550	0.2
43.0600	0.2
43.0650	0.2
43.0700	0.2
43.0750	0.2
43.0800	0.2
43.0850	0.2
43.0900	0.2
43.0950	0.2
43.1000	0.2
43.1050	0.2
43.1100	0.2
43.1150	0.2
43.1200	0.2
43.1250	0.2
43.1300	0.2
43.1350	0.2
43.1400	0.2
43.1450	0.2
43.1500	0.2
43.1550	0.2
43.1600	0.2
43.1650	0.2
43.1700	0.2
43.1750	0.2
43.1800	0.2
43.1850	0.2
43.1900	0.2
43.1950	0.2
43.2000	0.2
43.2050	0.2
43.2100	0.2
43.2150	0.2
43.2200	0.2
43.2250	0.2
43.2300	0.2
43.2350	0.2
43.2400	0.2
43.2450	0.2
43.2500	0.2
43.2550	0.2
43.2600	0.2
43.2650	0.2
43.2700	0.2
43.2750	0.2
43.2800	0.2
43.2850	0.2
43.2900	0.2
43.2950	0.2
43.3000	0.2
43.3050	0.2
43.3100	0.2
43.3150	0.2
43.3200	0.2
43.3250	0.2
43.3300	0.2
43.3350	0.2
43.3400	0.2
43.3450	0.2
43.3500	0.2
43.3550	0.2
43.3600	0.2
43.3650	0.2
43.3700	0.2
43.3750	0.2
43.3800	0.2
43.3850	0.2
43.3900	0.2
43.3950	0.2
43.4000	0.2
43.4050	0.2
43.4100	0.2
43.4150	0.2
43.4200	0.2
43.4250	0.2
43.4300	0.2
43.4350	0.2
43.4400	0.2
43.4450	0.2
43.4500	0.2
43.4550	0.2
43.4600	0.2
43.4650	0.2
43.4700	0.2
43.4750	0.2
43.4800	0.2
43.4850	0.2
43.4900	0.2
43.4950	0.2
43.5000	0.2
43.5050	0.2
43.5100	0.2
43.5150	0.2
43.5200	0.2
43.5250	0.2
43.5300	0.2
43.5350	0.2
43.5400	0.2
43.5450	0.2
43.5500	0.2
43.5550	0.2
43.5600	0.2
43.5650	0.2
43.5700	0.2
43.5750	0.2
43.5800	0.2
43.5850	0.2
43.5900	0.2
43.5950	0.2
43.6000	0.2
43.6050	0.2
43.6100	0.2
43.6150	0.2
43.6200	0.2
43.6250	0.2
43.6300	0.2
43.6350	0.2
43.6400	0.2
43.6450	0.2
43.6500	0.2
43.6550	0.2
43.6600	0.2
43.6650	0.2
43.6700	0.2
43.6750	0.2
43.6800	0.2
43.6850	0.2
43.6900	0.2
43.6950	0.2
43.7000	0.2
43.7050	0.2
43.7100	0.2
43.7150	0.2
43.7200	0.2
43.7250	0.2
43.7300	0.2
43.7350	0.2
43.7400	0.2
43.7450	0.2
43.7500	0.2
43.7550	0.2
43.7600	0.2
43.7650	0.2
43.7700	0.2
43.7750	0.2
43.7800	0.2
43.7850	0.2
43.7900	0.2
43.7950	0.2
43.8000	0.2
43.8050	0.2
43.8100	0.2
43.8150	0.2
43.8200	0.2
43.8250	0.2
43.8300	0.2
43.8350	0.2
43.8400	0.2
43.8450	0.2
43.8500	0.2
43.8550	0.2
43.8600	0.2
43.8650	0.2
43.8700	0.2
43.8750	0.2
43.8800	0.2
43.8850	0.2
43.8900	0.2
43.8950	0.2
43.9000	0.2
43.9050	0.2
43.9100	0.2
43.9150	0.2
43.9200	0.2
43.9250	0.2
43.9300	0.2
43.9350	0.2
43.9400	0.2
43.9450	0.2
43.9500	0.2
43.9550	0.2
43.9600	0.2
43.9650	0.2
43.9700	0.2
43.9750	0.2
43.9800	0.2
43.9850	0.2
43.9900	0.2
43.9950	0.2
44.0000	0.2
44.0050	0.2
44.0100	0.2
44.0150	0.2
44.0200	0.2
44.0250	0.2
44.0300	0.2
44.0350	0.2
44.0400	0.2
44.0450	0.2
44.0500	0.2
44.0550	0.2
44.0600	0.2
44.0650	0.2
44.0700	0.2
44.0750	0.2
44.0800	0.2
44.0850	0.2
44.0900	0.2
44.0950	0.2
44.1000	0.2
44.1050	0.2
44.1100	0.2
44.1150	0.2
44.1200	0.2
44.1250	0.2
44.1300	0.2
44.1350	0.2
44.1400	0.2
44.1450	0.2
44.1500	0.2
44.1550	0.2
44.1600	0.2
44.1650	0.2
44.1700	0.2
44.1750	0.2
44.1800	0.2
44.1850	0.2
44.1900	0.2
44.1950	0.2
44.2000	0.2
44.2050	0.2
44.2100	0.2
44.2150	0.2
44.2200	0.2
44.2250	0.2
44.2300	0.2
44.2350	0.2
44.2400	0.2
44.2450	0.2
44.2500	0.2
44.2550	0.2
44.2600	0.2
44.2650	0.2
44.2700	0.2
44.2750	0.2
44.2800	0.2
44.2850	0.2
44.2900	0.2
44.2950	0.2
44.3000	0.2
44.3050	0.2
44.3100	0.2
44.3150	0.2
44.3200	0.2
44.3250	0.2
44.3300	0.2
44.3350	0.2
44.3400	0.2
44.3450	0.2
44.3500	0.2
44.3550	0.2
44.3600	0.2
44.3650	0.2
44.3700	0.2
44.3750	0.2
44.3800	0.2
44.3850	0.2
44.3900	0.2
44.3950	0.2
44.4000	0.2
44.4050	0.2
44.4100	0.2
44.4150	0.2
44.4200	0.2
44.4250	0.2
44.4300	0.2
44.4350	0.2
44.4400	0.2
44.4450	0.2
44.4500	0.2
44.4550	0.2
44.4600	0.2
44.4650	0.2
44.4700	0.2
44.4750	0.2
44.4800	0.2
44.4850	0.2
44.4900	0.2
44.4950	0.2
44.5000	0.2
44.5050	0.2
44.5100	0.2
44.5150	0.2
44.5200	0.2
44.5250	0.2
44.5300	0.2
44.5350	0.2
44.5400	0.2
44.5450	0.2
44.5500	0.2
44.5550	0.2
44.5600	0.2
44.5650	0.2
44.5700	0.2
44.5750	0.2
44.5800	0.2
44.5850	0.2
44.5900	0.2
44.5950	0.2
44.6000	0.2
44.6050	0.2
44.6100	0.2
44.6150	0.2
44.6200	0.2
44.6250	0.2
44.6300	0.2
44.6350	0.2
44.6400	0.2
44.6450	0.2
44.6500	0.2
44.6550	0.2
44.6600	0.2
44.6650	0.2
44.6700	0.2
44.6750	0.2
44.6800	0.2
44.6850	0.2
44.6900	0.2
44.6950	0.2
44.7000	0.2
44.7050	0.2
44.7100	0.2
44.7150	0.2
44.7200	0.2
44.7250	0.2
44.7300	0.2
44.7350	0.2
44.7400	0.2
44.7450	0.2
44.7500	0.2
44.7550	0.2
44.7600	0.2
44.7650	0.2
44.7700	0.2
44.7750	0.2
44.7800	0.2
44.7850	0.2
44.7900	0.2
44.7950	0.2
44.8000	0.2
44.8050	0.2
44.8100	0.2
44.8150	0.2
44.8200	0.2
44.8250	0.2
44.8300	0.2
44.8350	0.2
44.8400	0.2
44.8450	0.2
44.8500	0.2
44.8550	0.2
44.8600	0.2
44.8650	0.2
44.8700	0.2
44.8750	0.2
44.8800	0.2
44.8850	0.2
44.8900	0.2
44.8950	0.2
44.9000	0.2
44.9050	0.2
44.9100	0.2
44.9150	0.2
44.9200	0.2
44.9250	0.2
44.9300	0.2
44.9350	0.2
44.9400	0.2
44.9450	0.2
44.9500	0.2
44.9550	0.2
44.9600	0.2
44.9650	0.2
44.9700	0.2
44.9750	0.2
44.9800	0.2
44.9850	0.2
44.9900	0.2
44.9950	0.2
45.0000	0.2
45.0050	0.2
45.0100	0.2
45.0150	0.2
45.0200	0.2
45.0250	0.2
45.0300	0.2
45.0350	0.2
45.0400	0.2
45.0450	0.2
45.0500	0.2
45.0550	0.2
45.0600	0.2
45.0650	0.2
45.0700	0.2
45.0750	0.2
45.0800	0.2
45.0850	0.2
45.0900	0.2
45.0950	0.2
45.1000	0.2
45.1050	0.2
45.1100	0.2
45.1150	0.2
45.1200	0.2
45.1250	0.2
45.1300	0.2
45.1350	0.2
45.1400	0.2
45.1450	0.2
45.1500	0.2
45.1550	0.2
45.1600	0.2
45.1650	0.2
45.1700	0.2
45.1750	0.2
45.1800	0.2
45.1850	0.2
45.1900	0.2
45.1950	0.2
45.2000	0.2
45.2050	0.2
45.2100	0.2
45.2150	0.2
45.2200	0.2
45.2250	0.2
45.2300	0.2
45.2350	0.2
45.2400	0.2
45.2450	0.2
45.2500	0.2
45.2550	0.2
45.2600	0.2
45.2650	0.2
45.2700	0.2
45.2750	0.2
45.2800	0.2
45.2850	0.2
45.2900	0.2
45.2950	0.2
45.3000	0.2
45.3050	0.2
45.3100	0.2
45.3150	0.2
45.3200	0.2
45.3250	0.2
45.3300	0.2
45.3350	0.2
45.3400	0.2
45.3450	0.2
45.3500	0.2
45.3550	0.2
45.3600	0.2
45.3650	0.2
45.3700	0.2
45.3750	0.2
45.3800	0.2
45.3850	0.2
45.3900	0.2
45.3950	0.2
45.4000	0.2
45.4050	0.2
45.4100	0.2
45.4150	0.2
45.4200	0.2
45.4250	0.2
45.4300	0.2
45.4350	0.2
45.4400	0.2
45.4450	0.2
45.4500	0.2
45.4550	0.2
45.4600	0.2
45.4650	0.2
45.4700	0.2
45.4750	0.2
45.4800	0.2
45.4850	0.2
45.4900	0.2
45.4950	0.2
45.5000	0.2
45.5050	0.2
45.5100	0.2
45.5150	0.2
45.5200	0.2
45.5250	0.2
45.5300	0.2
45.5350	0.2
45.5400	0.2
45.5450	0.2
45.5500	0.2
45.5550	0.2
45.5600	0.2
45.5650	0.2
45.5700	0.2
45.5750	0.2
45.5800	0.2
45.5850	0.2
45.5900	0.2
45.5950	0.2
45.6000	0.2
45.6050	0.2
45.6100	0.2
45.6150	0.2
45.6200	0.2
45.6250	0.2
45.6300	0.2
45.6350	0.2
45.6400	0.2
45.6450	0.2
45.6500	0.2
45.6550	0.2
45.6600	0.2
45.6650	0.2
45.6700	0.2
45.6750	0.2
45.6800	0.2
45.6850	0.2
45.6900	0.2
45.6950	0.2
45.7000	0.2
45.7050	0.2
45.7100	0.2
45.7150	0.2
45.7200	0.2
45.7250	0.2
45.7300	0.2
45.7350	0.2
45.7400	0.2
45.7450	0.2
45.7500	0.2
45.7550	0.2
45.7600	0.2
45.7650	0.2
45.7700	0.2
45.7750	0.2
45.7800	0.2
45.7850	0.2
45.7900	0.2
45.7950	0.2
45.8000	0.2
45.8050	0.2
45.8100	0.2
45.8150	0.2
45.8200	0.2
45.8250	0.2
45.8300	0.2
45.8350	0.2
45.8400	0.2
45.8450	0.2
45.8500	0.2
45.8550	0.2
45.8600	0.2
45.8650	0.2
45.8700	0.2
45.8750	0.2
45.8800	0.2
45.8850	0.2
45.8900	0.2
45.8950	0.2
45.9000	0.2
45.9050	0.2
45.9100	0.2
45.9150	0.2
45.9200	0.2
45.9250	0.2
45.9300	0.2
45.9350	0.2
45.9400	0.2
45.9450	0.2
45.9500	0.2
45.9550	0.2
45.9600	0.2
45.9650	0.2
45.9700	0.2
45.9750	0.2
45.9800	0.2
45.9850	0.2
45.9900	0.2
45.9950	0.2
46.0000	0.2
46.0050	0.2
46.0100	0.2
46.0150	0.2
46.0200	0.2
46.0250	0.2
46.0300	0.2
46.0350	0.2
46.0400	0.2
46.0450	0.2
46.0500	0.2
46.0550	0.2
46.0600	0.2
46.0650	0.2
46.0700	0.2
46.0750	0.2
46.0800	0.2
46.0850	0.2
46.0900	0.2
46.0950	0.2
46.1000	0.2
46.1050	0.2
46.1100	0.2
46.1150	0.2
46.1200	0.2
46.1250	0.2
46.1300	0.2
46.1350	0.2
46.1400	0.2
46.1450	0.2
46.1500	0.2
46.1550	0.2
46.1600	0.2
46.1650	0.2
46.1700	0.2
46.1750	0.2
46.1800	0.2
